# Generated from ../data/13JUL2013/000.dat
time gyro_x lean_rate_est
20 -0.000578188 0
20.005 0.000238295 0
20.01 0.0024288 0
20.015 0.00148425 0
20.02 -0.00134926 0
20.025 -0.000423853 0
20.03 0.0070108 0
20.035 0.00344701 0
20.04 -0.00134447 0
20.045 0.00539048 0
20.05 0.00564684 0
20.055 0.00413378 0
20.06 -0.000537976 0
20.065 0.00389131 0
20.07 0.00540901 0
20.075 0.00323988 0
20.08 0.00975753 0
20.085 0.00233086 0
20.09 0.00132067 0
20.095 0.00168501 0
20.1 0.00399724 0
20.105 0.00471908 0
20.11 0.00470252 0
20.115 0.00477895 0
20.12 0.00529415 0
20.125 0.00744972 0
20.13 0.00609988 0
20.135 0.0058353 0
20.14 0.00782726 0
20.145 0.00509632 0
20.15 0.00763172 0
20.155 0.00486016 0
20.16 0.00186905 0
20.165 0.00324933 0
20.17 0.00740808 0
20.175 0.00303509 0
20.18 0.00711817 0
20.185 0.0106107 0
20.19 0.00770119 0
20.195 0.00431752 0
20.2 0.00564286 0
20.205 0.00737758 0
20.21 0.00942697 0
20.215 0.00767883 0
20.22 0.00444571 0
20.225 0.010832 0
20.23 0.00856882 0
20.235 0.00508425 0
20.24 0.004844 0
20.245 0.00347731 0
20.25 0.00858151 0
20.255 0.00663347 0
20.26 0.00814051 0
20.265 0.00700127 0
20.27 0.00864939 0
20.275 0.00782545 0
20.28 0.00384219 0
20.285 0.00677742 0
20.29 0.0027644 0
20.295 0.00984738 0
20.3 0.00433223 0
20.305 0.00667253 0
20.31 0.00783192 0
20.315 0.00589226 0
20.32 0.00607141 0
20.325 0.0097833 0
20.33 0.00666178 0
20.335 0.00916467 0
20.34 0.00679076 0
20.345 0.00487239 0
20.35 0.0124908 0
20.355 0.0133551 0
20.36 0.00838999 0
20.365 0.00991701 0
20.37 0.0111642 0
20.375 0.0101252 0
20.38 0.00535097 0
20.385 0.00260752 0
20.39 0.00754155 0
20.395 0.0106861 0
20.4 0.00677945 0
20.405 0.0093465 0
20.41 0.00919419 0
20.415 0.0078725 0
20.42 0.00786265 0
20.425 0.00586182 0
20.43 0.00868187 0
20.435 0.009036 0
20.44 0.00649725 0
20.445 0.000804541 0
20.45 0.00857135 0
20.455 0.00757451 0
20.46 0.00714709 0
20.465 0.00656605 0
20.47 0.00456713 0
20.475 0.00490938 0
20.48 0.00330393 0
20.485 0.00519098 0
20.49 0.00407328 0
20.495 0.00578563 0
20.5 0.00623159 0
20.505 0.005475 0
20.51 0.00394355 0
20.515 0.00251705 0
20.52 0.00162881 0
20.525 0.00232103 0
20.53 0.00562143 0
20.535 0.00241246 0
20.54 0.00336855 0
20.545 0.00345313 0
20.55 0.00086273 0
20.555 4.15235e-05 0
20.56 0.0014372 0
20.565 0.000403813 0
20.57 0.00663347 0
20.575 0.00162628 0
20.58 0.00033371 0
20.585 0.00105355 0
20.59 -0.000470859 0
20.595 -0.00224172 0
20.6 0.00061629 0
20.605 -0.00164963 0
20.61 -0.00176473 0
20.615 -0.00126766 0
20.62 0.00153308 0
20.625 0.00348776 0
20.63 -0.0040897 0
20.635 -0.00017204 0
20.64 -0.00173606 0
20.645 -0.00154254 0
20.65 0.00255572 0
20.655 -0.00644623 0
20.66 -0.000560181 0
20.665 -0.000413056 0
20.67 -0.00254264 0
20.675 -0.000647361 0
20.68 -0.00221946 0
20.685 -0.00490808 0
20.69 -0.00822877 0
20.695 -0.00180544 0
20.7 -0.00837139 0
20.705 -0.0069027 0
20.71 -0.00760052 0
20.715 0.000360708 0
20.72 -0.00371794 0
20.725 -0.000682665 0
20.73 -0.00777593 0
20.735 -0.00587184 0
20.74 -0.00507939 0
20.745 -0.00775192 0
20.75 -0.00781515 0
20.755 -0.0011708 0
20.76 -0.00621347 0
20.765 -0.00241327 0
20.77 -0.00659 0
20.775 -0.00609447 0
20.78 -0.00561802 0
20.785 -0.00742029 0
20.79 -0.00305541 0
20.795 -0.00296317 0
20.8 -0.00562838 0
20.805 -0.00057171 0
20.81 -0.00845011 0
20.815 -0.00557416 0
20.82 -0.00935146 0
20.825 -0.0064933 0
20.83 -0.00904762 0
20.835 -0.00733287 0
20.84 -0.00228147 0
20.845 -0.00707318 0
20.85 -0.0040447 0
20.855 -0.0104507 0
20.86 -0.0105534 0
20.865 -0.0124035 0
20.87 -0.012128 0
20.875 -0.010083 0
20.88 -0.00921373 0
20.885 -0.0127439 0
20.89 -0.00896931 0
20.895 -0.00419673 0
20.9 -0.00269057 0
20.905 -0.0151468 0
20.91 -0.0194679 0
20.915 -0.00115405 0
20.92 -0.0269491 0
20.925 0.0220594 0
20.93 -0.0247204 0
20.935 -0.00730187 0
20.94 0.00914857 0
20.945 -0.0338708 0
20.95 0.0252775 0
20.955 -0.0307744 0
20.96 0.00918005 0
20.965 -0.0237136 0
20.97 -0.00364195 0
20.975 0.0166254 0
20.98 -0.0314471 0
20.985 0.0146621 0
20.99 -0.0239653 0
20.995 -0.00406873 0
21 0.00514044 0
21.005 -0.0233253 0
21.01 0.0101473 0
21.015 -0.0249415 0
21.02 -0.00311518 0
21.025 -0.00470216 0
21.03 -0.00583793 0
21.035 -0.00111429 0
21.04 -0.00477133 0
21.045 0.00139144 0
21.05 -0.00554379 0
21.055 0.00211361 0
21.06 -0.0120577 0
21.065 0.00368978 0
21.07 -0.0119702 0
21.075 -0.00276245 0
21.08 0.00979178 0
21.085 -0.0161533 0
21.09 0.0157903 0
21.095 -0.0158582 0
21.1 0.013341 0
21.105 -0.00264279 0
21.11 -0.00318643 0
21.115 0.0137527 0
21.12 -0.0188803 0
21.125 0.0157685 0
21.13 -0.00582001 0
21.135 0.00161975 0
21.14 0.00613028 0
21.145 -0.00535789 0
21.15 0.0154581 0
21.155 -0.0090891 0
21.16 0.012327 0
21.165 0.00604091 0
21.17 -0.00156831 0
21.175 0.0157524 0
21.18 -0.00957053 0
21.185 0.0086125 0
21.19 -0.000409092 0
21.195 0.00586931 0
21.2 0.00586249 0
21.205 0.00904464 0
21.21 0.00636621 0
21.215 0.00836452 0
21.22 0.00561929 0
21.225 0.00419507 0
21.23 0.00490486 0
21.235 -0.00726166 0
21.24 0.0103672 0
21.245 0.00184291 0
21.25 -0.0032024 0
21.255 0.00973202 0
21.26 -0.0045432 0
21.265 0.00828818 0
21.27 0.00380325 0
21.275 0.002402 0
21.28 0.00490672 0
21.285 -0.000395216 0
21.29 0.0071018 0
21.295 -0.00390386 0
21.3 -0.00647572 0
21.305 0.000641823 0
21.31 -0.00370147 0
21.315 0.00648804 0
21.32 -0.00266453 0
21.325 0.00112087 0
21.33 -0.00098895 0
21.335 0.0013064 0
21.34 0.00397579 0
21.345 -0.00578289 0
21.35 0.00429417 0
21.355 -0.00779821 0
21.36 -0.00363509 0
21.365 0.00246784 0
21.37 -0.00287155 0
21.375 0.000389724 0
21.38 -0.00219625 0
21.385 -0.00301178 0
21.39 -0.00299968 0
21.395 -0.00151257 0
21.4 -0.00475471 0
21.405 -0.0022724 0
21.41 0.00336076 0
21.415 -0.00467537 0
21.42 -0.00170709 0
21.425 -0.00295587 0
21.43 -0.000342418 0
21.435 -0.00784994 0
21.44 -0.000725785 0
21.445 0.00387066 0
21.45 -0.00287101 0
21.455 -0.000587533 0
21.46 0.00141037 0
21.465 -0.00616264 0
21.47 -0.00408663 0
21.475 -0.00526406 0
21.48 0.0011941 0
21.485 0.000854645 0
21.49 -0.000462481 0
21.495 -0.00242001 0
21.5 0.0028065 0
21.505 0.000113371 0
21.51 4.83749e-05 0
21.515 0.000350648 0
21.52 -0.00105301 0
21.525 0.00391135 0
21.53 0.00246298 0
21.535 0.00559696 0
21.54 0.0010712 0
21.545 0.00806269 0
21.55 0.00958451 0
21.555 0.00834584 0
21.56 0.011485 0
21.565 0.00888885 0
21.57 0.0159013 0
21.575 0.0165972 0
21.58 0.0209687 0
21.585 0.0161542 0
21.59 0.0156628 0
21.595 0.0182652 0
21.6 0.01479 0
21.605 0.0183479 0
21.61 0.0168895 0
21.615 0.0159012 0
21.62 0.0197894 0.0201988
21.625 0.0241078 0.0214165
21.63 0.0251478 0.0226565
21.635 0.0276486 0.0242067
21.64 0.0245714 0.0248819
21.645 0.0254676 0.0256204
21.65 0.032769 0.0277119
21.655 0.0280465 0.0285043
21.66 0.027087 0.0289632
21.665 0.0316223 0.0302591
21.67 0.0326041 0.0292614
21.675 0.0273173 0.0272694
21.68 0.0341132 0.0270626
21.685 0.0276622 0.025384
21.69 0.0273964 0.0239477
21.695 0.0210364 0.0214318
21.7 0.0220022 0.0196715
21.705 0.0261893 0.0190882
21.71 0.0161691 0.0164434
21.715 -0.00117721 0.0108789
21.72 0.0180535 0.0107937
21.725 0.0123478 0.00945792
21.73 0.0229416 0.0105506
21.735 0.0125031 0.00901862
21.74 0.00984443 0.00728675
21.745 0.0194622 0.00791192
21.75 0.0175719 0.00785317
21.755 0.0208942 0.00835977
21.76 0.0126653 0.00689786
21.765 0.00949408 0.0050253
21.77 0.0112164 0.00391378
21.775 -0.00577672 -0.000443767
21.78 -0.00160243 -0.00278579
21.785 0.0029521 -0.00362334
21.79 -0.00797409 -0.00652973
21.795 0.00263258 -0.00650065
21.8 -0.0150336 -0.0101363
21.805 0.00228085 -0.00922481
21.81 0.00438463 -0.0082342
21.815 -0.00139302 -0.0087791
21.82 0.00283164 -0.00837599
21.825 -0.0095383 -0.0107332
21.83 0.00326497 -0.00981042
21.835 -0.0116152 -0.0123248
21.84 -0.0147131 -0.0147716
21.845 -0.0111704 -0.0158662
21.85 -0.0193495 -0.0183391
21.855 -0.0124719 -0.0187163
21.86 -0.0179132 -0.0200632
21.865 -0.0130992 -0.0200353
21.87 -0.00295985 -0.017944
21.875 -0.00888787 -0.0176612
21.88 -0.0134669 -0.0184092
21.885 -0.0107046 -0.0184061
21.89 -0.00769204 -0.0177619
21.895 -0.0177449 -0.0194233
21.9 -0.0167196 -0.0204062
21.905 -0.025327 -0.0228916
21.91 -0.0207769 -0.0237342
21.915 -0.0180385 -0.0237633
21.92 -0.0207303 -0.0243261
21.925 -0.0175744 -0.0240878
21.93 -0.0307412 -0.0266002
21.935 -0.0136375 -0.0248555
21.94 -0.0205229 -0.0249877
21.945 -0.0198633 -0.0249363
21.95 -0.00679412 -0.0221513
21.955 -0.0213411 -0.0231475
21.96 -0.015986 -0.0227359
21.965 -0.0275985 -0.0248099
21.97 -0.0205644 -0.0248418
21.975 -0.0211494 -0.0249164
21.98 -0.025095 -0.0257445
21.985 -0.0255538 -0.0264021
21.99 -0.0258889 -0.0268798
21.995 -0.0158265 -0.0250995
22 -0.0154801 -0.0236587
22.005 -0.0168706 -0.0228595
22.01 -0.0102127 -0.0208852
22.015 -0.0205964 -0.0215664
22.02 -0.0118777 -0.0202449
22.025 -0.0182835 -0.0205814
22.03 -0.0232708 -0.0218723
22.035 -0.0256587 -0.0232851
22.04 -0.0291193 -0.0250027
22.045 -0.0287874 -0.0261591
22.05 -0.030729 -0.0273459
22.055 -0.0274166 -0.0274618
22.06 -0.0264676 -0.0272751
22.065 -0.0234321 -0.0264325
22.07 -0.0255254 -0.0261699
22.075 -0.0194262 -0.0246455
22.08 -0.0179072 -0.0231319
22.085 -0.0133009 -0.0210066
22.09 -0.00368229 -0.0174136
22.095 -0.0122533 -0.0165326
22.1 -0.0112743 -0.0156649
22.105 -0.0141968 -0.0156241
22.11 -0.0168535 -0.0161396
22.115 -0.0144242 -0.0160116
22.12 -0.0219556 -0.0174767
22.125 -0.02041 -0.0182163
22.13 -0.0243523 -0.0195552
22.135 -0.0209912 -0.0198158
22.14 -0.0193416 -0.0196344
22.145 -0.0204283 -0.0196914
22.15 -0.0168822 -0.0189659
22.155 -0.0209228 -0.0192353
22.16 -0.014018 -0.01797
22.165 -0.0169685 -0.0176247
22.17 -0.0155646 -0.0170479
22.175 -0.0128053 -0.0160337
22.18 -0.012624 -0.0152196
22.185 -0.0100563 -0.0140745
22.19 -0.00612557 -0.0124014
22.195 -0.00931244 -0.0118233
22.2 -0.0170632 -0.0130028
22.205 -0.0164839 -0.0137502
22.21 -0.0192395 -0.0148649
22.215 -0.0196184 -0.0157498
22.22 -0.0101665 -0.0144218
22.225 -0.0199202 -0.0154404
22.23 -0.0160364 -0.0153717
22.235 -0.0167093 -0.0154339
22.24 -0.0197865 -0.0160957
22.245 -0.0124317 -0.015037
22.25 -0.0117983 -0.0140993
22.255 -0.0103742 -0.0130953
22.26 -0.0140289 -0.0130997
22.265 -0.0120101 -0.0126769
22.27 -0.012249 -0.0124002
22.275 -0.0111255 -0.0119529
22.28 -0.00854165 -0.0110757
22.285 -0.011709 -0.0110744
22.29 -0.0044694 -0.0095656
22.295 -0.00790152 -0.00915936
22.3 -0.0108408 -0.00947354
22.305 -0.0133636 -0.0102309
22.31 -0.016625 -0.0114648
22.315 -0.00598835 -0.0101629
22.32 -0.0162461 -0.011317
22.325 -0.00552073 -0.0099371
22.33 -0.0117061 -0.0101932
22.335 -0.00798426 -0.00960725
22.34 -0.0078365 -0.00914474
22.345 -0.0164351 -0.0105927
22.35 -0.0132802 -0.0110142
22.355 -0.0154499 -0.0117736
22.36 -0.010519 -0.0113034
22.365 -0.0128116 -0.0114155
22.37 -0.0164734 -0.0122467
22.375 -0.00939844 -0.0113764
22.38 -0.00673799 -0.0101576
22.385 -0.00466272 -0.00880996
22.39 -0.00584336 -0.00804972
22.395 -0.00899786 -0.00814083
22.4 -0.00927932 -0.00826998
22.405 -0.0116214 -0.00885294
22.41 -0.0115028 -0.00925693
22.415 -0.0124497 -0.00974697
22.42 -0.0129407 -0.0101999
22.425 -0.00940059 -0.00978284
22.43 -0.0170859 -0.0110506
22.435 -0.0128737 -0.0110971
22.44 -0.0100638 -0.010523
22.445 -0.00673148 -0.00937793
22.45 -0.0115815 -0.00951688
22.455 -0.00337374 -0.00789933
22.46 -0.00729357 -0.00749933
22.465 -0.0123984 -0.00826432
22.47 -0.00984057 -0.00829405
22.475 -0.010993 -0.00854259
22.48 -0.00614726 -0.00771003
22.485 -0.0163307 -0.00920035
22.49 -0.0116592 -0.00931764
22.495 -0.0119001 -0.00943386
22.5 -0.00402403 -0.00785823
22.505 -0.00512699 -0.00688574
22.51 -0.00644881 -0.00642333
22.515 -0.000358261 -0.00479968
22.52 -0.00569161 -0.00469218
22.525 -0.00296509 -0.00404791
22.53 -0.00271514 -0.00351774
22.535 -0.00664822 -0.00394722
22.54 -0.00432888 -0.0037979
22.545 -0.0120861 -0.00530631
22.55 -0.00609056 -0.00518018
22.555 -0.00726222 -0.00533104
22.56 -0.00472728 -0.00490955
22.565 -0.00309752 -0.00424881
22.57 -0.00713993 -0.00460248
22.575 -0.000961241 -0.00357836
22.58 -0.00248401 -0.00313864
22.585 -0.00254353 -0.00283563
22.59 -0.00657297 -0.00345668
22.595 -0.00283653 -0.00315181
22.6 -0.00506269 -0.00339547
22.605 -0.000446061 -0.00262171
22.61 -0.00373676 -0.00273697
22.615 -0.0105979 -0.00426099
22.62 -0.00507042 -0.00424807
22.625 -0.0128908 -0.00586278
22.63 -0.00386308 -0.0051748
22.635 -0.00708156 -0.00531507
22.64 0.00128503 -0.0036605
22.645 -0.0018954 -0.00308513
22.65 0.00445953 -0.00132478
22.655 0.00325101 -0.000271791
22.66 0.00386743 0.000620155
22.665 0.00487695 0.00147067
22.67 0.00190008 0.00144784
22.675 -0.00435596 8.78182e-05
22.68 -0.00245429 -0.000566319
22.685 -0.00838816 -0.00232001
22.69 -0.00767371 -0.00350101
22.695 -0.00691863 -0.00423201
22.7 -0.00542973 -0.00446343
22.705 0.00164661 -0.00315141
22.71 -0.00382858 -0.00331071
22.715 0.00144507 -0.00232599
22.72 0.00607737 -0.000622137
22.725 0.00624347 0.000678563
22.73 4.42202e-05 0.000340201
22.735 -0.00299624 -0.000567076
22.74 -0.00048097 -0.000737576
22.745 0.00256524 -0.00023938
22.75 -0.00884291 -0.00225775
22.755 -0.00698483 -0.00338717
22.76 -0.00679446 -0.00418861
22.765 -0.0083142 -0.00509484
22.77 -0.00601038 -0.00527587
22.775 -0.00219218 -0.00459402
22.78 0.000186797 -0.00356865
22.785 0.00634774 -0.00149962
22.79 0.00575007 -6.95253e-05
22.795 0.00561754 0.000963331
22.8 0.00409442 0.0013999
22.805 0.00659275 0.00222383
22.81 -0.00349026 0.000703841
22.815 -0.0077674 -0.00135682
22.82 -0.00516283 -0.00237524
22.825 -0.00468867 -0.00304182
22.83 -0.00561958 -0.0037319
22.835 -0.00301289 -0.00369635
22.84 0.00345905 -0.00230161
22.845 0.00445925 -0.00103766
22.85 0.00847844 0.000753338
22.855 0.00992737 0.00239133
22.86 0.0121039 0.0040533
22.865 0.00461493 0.00370522
22.87 -0.00288869 0.00184065
22.875 -0.00322427 0.000343266
22.88 -0.00487867 -0.00114168
22.885 -0.0100406 -0.00333885
22.89 -0.0070804 -0.00436015
22.895 -0.00488833 -0.0046509
22.9 -0.00489403 -0.00484726
22.905 0.00106121 -0.00372564
22.91 0.00518587 -0.00199995
22.915 0.011678 0.000662797
22.92 0.00762321 0.00181126
22.925 0.0110781 0.00337761
22.93 0.00117417 0.00245668
22.935 0.00532292 0.00260583
22.94 -0.00591695 0.000342797
22.945 -0.00711772 -0.00162522
22.95 -0.00464278 -0.00258932
22.955 -0.0100678 -0.00443856
22.96 -0.000783388 -0.0038682
22.965 0.00258739 -0.0027109
22.97 -0.000914547 -0.00255598
22.975 0.00770718 -0.000621594
22.98 0.00946651 0.00120766
22.985 0.00884668 0.00244775
22.99 0.00757687 0.00309884
22.995 0.00384026 0.00278182
23 -0.0011208 0.00148406
23.005 -0.00351684 -8.28838e-06
23.01 -0.00417313 -0.00127674
23.015 -0.00290958 -0.00196163
23.02 -0.00769913 -0.00346843
23.025 -0.0031589 -0.00363351
23.03 0.00379897 -0.0022796
23.035 0.00530175 -0.000928832
23.04 0.0132917 0.00176244
23.045 0.00815244 0.00270363
23.05 0.00792261 0.0033441
23.055 0.0030466 0.00277859
23.06 4.38705e-05 0.00170417
23.065 0.00283246 0.00145834
23.07 -0.00217973 0.000215946
23.075 -0.00645221 -0.00161805
23.08 -0.0024218 -0.00215074
23.085 -0.000130212 -0.00205898
23.09 -0.00403553 -0.00279134
23.095 0.00739921 -0.000934412
23.1 0.00621531 0.000227992
23.105 0.0137268 0.00267247
23.11 0.010545 0.00383041
23.115 0.0111135 0.00479643
23.12 0.00639362 0.00450565
23.125 -0.00216328 0.002463
23.13 0.00218258 0.00180969
23.135 -0.00189364 0.000451607
23.14 -0.00553209 -0.00134004
23.145 -0.00258076 -0.0020678
23.15 -0.00136738 -0.00234898
23.155 0.00182162 -0.00187705
23.16 0.00782183 -0.000251285
23.165 0.00997903 0.00143025
23.17 0.0140943 0.00355674
23.175 0.0177741 0.00590994
23.18 0.0101943 0.00606576
23.185 0.00957505 0.0060126
23.19 0.00761718 0.005524
23.195 -0.00164597 0.0031772
23.2 -0.00113368 0.00149174
23.205 -0.00795514 -0.00121598
23.21 -0.00711593 -0.00307364
23.215 -0.000963541 -0.00317038
23.22 -0.00334123 -0.00371341
23.225 0.00736418 -0.00185912
23.23 0.00469401 -0.000999158
23.235 0.0123664 0.00126263
23.24 0.00522825 0.0014698
23.245 0.00516122 0.0016028
23.25 0.00809655 0.00230341
23.255 0.000146337 0.00116156
23.26 -0.00892532 -0.00161077
23.265 -0.00562076 -0.00300629
23.27 -0.0056088 -0.00403823
23.275 -0.00193049 -0.00402055
23.28 -0.00149748 -0.00388754
23.285 0.000428498 -0.00335385
23.29 0.00814949 -0.00131118
23.295 0.00778951 0.000162054
23.3 0.0136103 0.00248958
23.305 0.00845425 0.00315096
23.31 0.00770465 0.00346937
23.315 0.00515738 0.00315094
23.32 -0.00111154 0.0015716
23.325 0.00390349 0.00140739
23.33 -0.00335883 -0.000243555
23.335 0.00411684 7.24953e-05
23.34 -0.00368025 -0.00132184
23.345 -0.00162767 -0.00193858
23.35 0.000332032 -0.00198495
23.355 0.00219292 -0.00161342
23.36 0.010422 0.000396444
23.365 0.00796692 0.00140387
23.37 0.00595174 0.00173027
23.375 0.00816201 0.0024299
23.38 0.00322263 0.0019073
23.385 0.00534603 0.00194223
23.39 0.00398129 0.00167045
23.395 0.00238994 0.00111339
23.4 -0.0018962 -0.000223492
23.405 -0.00310577 -0.00148528
23.41 0.00311215 -0.0011407
23.415 -0.00337844 -0.00223772
23.42 0.00432298 -0.00144493
23.425 0.000846446 -0.00157308
23.43 -0.000244327 -0.00189875
23.435 -0.00128772 -0.0023531
23.44 -0.000240955 -0.00246937
23.445 0.00162474 -0.00215291
23.45 0.00246653 -0.00173303
23.455 -0.00129321 -0.00219525
23.46 -0.00590364 -0.00350031
23.465 0.00345546 -0.00251211
23.47 0.00428004 -0.00157821
23.475 0.00532614 -0.00065278
23.48 0.00129013 -0.000798733
23.485 -0.0019422 -0.00158663
23.49 0.00150107 -0.00146199
23.495 -0.0047139 -0.00266454
23.5 0.00460395 -0.00162066
23.505 0.000544411 -0.00168161
23.51 -0.00687713 -0.00327789
23.515 0.00393712 -0.00221687
23.52 -0.000109284 -0.00225762
23.525 0.00279881 -0.00168091
23.53 0.00350724 -0.00110334
23.535 -0.000874798 -0.00158627
23.54 0.00267275 -0.00121753
23.545 -0.00605567 -0.00276576
23.55 0.00516372 -0.00158664
23.555 0.00366497 -0.00101506
23.56 -0.00540689 -0.00248608
23.565 -0.00214172 -0.00291219
23.57 -0.00846556 -0.00455118
23.575 -0.00331606 -0.00469025
23.58 -0.00466476 -0.00505887
23.585 -0.000608792 -0.0044663
23.59 -0.00336224 -0.00457643
23.595 -5.34184e-05 -0.0039467
23.6 0.000642716 -0.00330741
23.605 -0.00425567 -0.00384049
23.61 0.00491578 -0.00231282
23.615 -0.00262979 -0.00273661
23.62 0.000810821 -0.00233196
23.625 -0.00245291 -0.00271249
23.63 0.00201199 -0.00206776
23.635 0.000870312 -0.00182471
23.64 -0.0045538 -0.00278546
23.645 0.00149356 -0.00224629
23.65 0.00136586 -0.00187036
23.655 0.00224746 -0.00140733
23.66 -0.000502005 -0.0016461
23.665 0.00205611 -0.00130065
23.67 0.00116893 -0.00123335
23.675 -0.010319 -0.00359451
23.68 0.000283328 -0.00315606
23.685 -0.00659892 -0.00425983
23.69 -0.00221999 -0.00416744
23.695 0.00127385 -0.003356
23.7 -0.00344121 -0.00372361
23.705 0.00687136 -0.00183626
23.71 -0.00432541 -0.00275706
23.715 0.0113807 -0.000171329
23.72 0.00695852 0.000841618
23.725 -0.00254848 -0.000408733
23.73 0.00075899 -0.000685095
23.735 -0.00925233 -0.00300449
23.74 -0.00527586 -0.00393375
23.745 -0.0109813 -0.00582444
23.75 -0.00754188 -0.00652019
23.755 -0.0154912 -0.00868932
23.76 -0.0106393 -0.00927471
23.765 0.000892273 -0.00726319
23.77 0.0034634 -0.0051783
23.775 0.00725432 -0.00279307
23.78 0.00559417 -0.00134078
23.785 0.0042273 -0.000542238
23.79 0.00811393 0.000854058
23.795 -0.00171421 -0.000176133
23.8 -0.000433324 -0.000713443
23.805 -0.00142116 -0.00134199
23.81 -0.00639299 -0.0028768
23.815 -0.0132562 -0.00547759
23.82 -0.00650865 -0.00602451
23.825 -0.0049609 -0.00609879
23.83 -0.00654217 -0.00646604
23.835 0.00632727 -0.00403011
23.84 0.00212376 -0.00306037
23.845 0.00709976 -0.00129107
23.85 0.00706666 2.53063e-05
23.855 0.00977354 0.00156081
23.86 0.002066 0.00107991
23.865 -0.00208671 -0.000185975
23.87 -0.00561043 -0.0019033
23.875 -0.00650591 -0.00339968
23.88 -0.0101597 -0.00529465
23.885 -0.00455392 -0.00554056
23.89 -0.00744519 -0.00631403
23.895 -0.00279942 -0.00590472
23.9 -0.0054344 -0.00612651
23.905 0.00412012 -0.00427538
23.91 0.00566748 -0.00254225
23.915 0.00477292 -0.00141773
23.92 0.00156854 -0.00124863
23.925 -0.00585877 -0.00268717
23.93 -0.00241471 -0.0030584
23.935 -0.00195549 -0.00324572
23.94 -0.00372771 -0.00376018
23.945 0.00114773 -0.00312594
23.95 0.000113092 -0.00286519
23.955 0.00175696 -0.00232835
23.96 0.00309737 -0.00164968
23.965 0.00831843 -5.85644e-05
23.97 0.00442227 0.00031166
23.975 0.00280614 0.000227066
23.98 -0.00318967 -0.00111561
23.985 5.86175e-05 -0.00146647
23.99 -0.00493227 -0.00278692
23.995 -0.00873336 -0.00458656
24 -0.00680585 -0.00552636
24.005 -0.00406844 -0.00564358
24.01 0.00109731 -0.0046291
24.015 0.00403734 -0.00323126
24.02 0.00151522 -0.00269836
24.025 0.00941909 -0.000642622
24.03 0.0113312 0.00130054
24.035 0.00870498 0.00219151
24.04 0.000891681 0.00119281
24.045 -0.00202257 -0.000206302
24.05 -0.00572526 -0.00206971
24.055 -0.01103 -0.00459903
24.06 -0.0106802 -0.00643155
24.065 -0.00916318 -0.00748623
24.07 -0.00451547 -0.00728115
24.075 -0.00447955 -0.00709429
24.08 0.00135353 -0.0057069
24.085 0.00654358 -0.00355432
24.09 0.00508913 -0.00222484
24.095 0.0102171 -0.00015762
24.1 0.00685024 0.000684388
24.105 0.00421541 0.000735993
24.11 -0.00484949 -0.00114916
24.115 -0.00325744 -0.00225916
24.12 -0.00743438 -0.00397634
24.125 -0.0107987 -0.00598358
24.13 -0.000529588 -0.00533707
24.135 -0.0104842 -0.00691762
24.14 -0.00599034 -0.00715041
24.145 0.00172356 -0.00568659
24.15 -0.00227999 -0.00539705
24.155 0.00348515 -0.00396141
24.16 0.00169621 -0.00324289
24.165 0.001467 -0.00275362
24.17 0.0111255 -0.000367852
24.175 -0.00184829 -0.00129881
24.18 0.000453966 -0.00154228
24.185 0.000400734 -0.00175562
24.19 -0.00194965 -0.0024243
24.195 0.00187819 -0.00214304
24.2 -0.0022806 -0.00281449
24.205 0.00101467 -0.00264212
24.21 0.00476972 -0.00173437
24.215 0.00240851 -0.00155499
24.22 -0.000584519 -0.00206026
24.225 -0.00360011 -0.00308019
24.23 -0.000136541 -0.00313676
24.235 -0.00313412 -0.00380764
24.24 -0.00744018 -0.00521378
24.245 -0.000862981 -0.00488912
24.25 0.00108819 -0.00422323
24.255 -0.00146887 -0.00425112
24.26 0.0063668 -0.00261957
24.265 0.000827524 -0.00255037
24.27 0.0120834 -0.000149275
24.275 0.00596614 0.000366933
24.28 0.00405692 0.000328804
24.285 0.000366384 -0.000500494
24.29 -0.00535637 -0.00235127
24.295 -0.000972405 -0.0028464
24.3 -0.00840553 -0.00478232
24.305 -0.00808269 -0.00617576
24.31 -0.00158107 -0.00585403
24.315 0.0012465 -0.00500303
24.32 -0.000648219 -0.00474967
24.325 -0.00427933 -0.00530391
24.33 0.00373087 -0.00403604
24.335 -0.000123312 -0.0038784
24.34 -0.00190923 -0.00413067
24.345 0.000625867 -0.0037876
24.35 0.00120183 -0.00340587
24.355 -0.000203325 -0.00341184
24.36 -0.00343991 -0.00409848
24.365 -0.000323412 -0.0039662
24.37 0.00163608 -0.00345118
24.375 0.000934051 -0.00322055
24.38 -0.00708323 -0.00473054
24.385 0.000469365 -0.00429097
24.39 -0.000360727 -0.00413138
24.395 -0.00197405 -0.00434872
24.4 -0.00484127 -0.00510757
24.405 -0.00627507 -0.00598179
24.41 0.000360567 -0.0052421
24.415 0.000574587 -0.0046255
24.42 0.00828602 -0.00254711
24.425 -0.00124442 -0.00297816
24.43 0.00635245 -0.00171932
24.435 -0.00105838 -0.00234029
24.44 0.00595484 -0.00135725
24.445 0.00338803 -0.0011667
24.45 0.00464245 -0.000789559
24.455 -0.00177887 -0.00187315
24.46 -0.0043075 -0.00324118
24.465 -0.00767453 -0.00499312
24.47 -0.00606753 -0.0059815
24.475 -0.00968194 -0.00746994
24.48 -0.0062098 -0.00785833
24.485 -0.00306793 -0.00747277
24.49 -0.00176604 -0.00688904
24.495 0.00360557 -0.00530734
24.5 0.00391231 -0.0040401
24.505 0.00965124 -0.00188655
24.51 0.00437235 -0.00138203
24.515 0.00479012 -0.000937424
24.52 -0.000913167 -0.00182528
24.525 -0.00790723 -0.00398586
24.53 -0.0107211 -0.00621945
24.535 -0.00768664 -0.00726526
24.54 -0.00777224 -0.00806817
24.545 -0.0125461 -0.00965509
24.55 -0.0110361 -0.0105107
24.555 -0.00980939 -0.0108663
24.56 -0.00278807 -0.00962484
24.565 0.00157108 -0.00774027
24.57 0.00242332 -0.00611673
24.575 0.00709636 -0.00390382
24.58 -0.000218202 -0.00376978
24.585 -0.00181585 -0.00401632
24.59 -0.00896086 -0.00571117
24.595 -0.00883114 -0.00696911
24.6 -0.0149312 -0.00919008
24.605 -0.0150861 -0.0108901
24.61 -0.0117153 -0.0114416
24.615 -0.0139327 -0.01229
24.62 -0.0106776 -0.0122168
24.625 -0.00745414 -0.0114458
24.63 -0.00761832 -0.0108654
24.635 0.00094618 -0.00860229
24.64 -0.00285807 -0.00766756
24.645 0.00256928 -0.00581728
24.65 0.00215261 -0.00450773
24.655 -0.00528883 -0.00509
24.66 -0.00588592 -0.00566737
24.665 -0.0145324 -0.00792612
24.67 -0.00792694 -0.00824719
24.675 -0.0122906 -0.00939348
24.68 -0.00301964 -0.0083044
24.685 -0.0141781 -0.00980608
24.69 -0.00439415 -0.00887874
24.695 0.00198271 -0.00683302
24.7 -0.000449358 -0.0057926
24.705 -0.00217468 -0.00537617
24.71 -0.015448 -0.00785371
24.715 -0.00777594 -0.00812407
24.72 -0.0117217 -0.00915198
24.725 -0.0104719 -0.0096606
24.73 -0.0059625 -0.00908864
24.735 -0.0168039 -0.0109141
24.74 -0.00335473 -0.00946128
24.745 -0.0136346 -0.0104984
24.75 -0.000788319 -0.00857721
24.755 -0.00402077 -0.00779364
24.76 -0.00132318 -0.00663775
24.765 -0.00203248 -0.0059187
24.77 -0.0138921 -0.00787101
24.775 -0.00524709 -0.00754343
24.78 -0.012516 -0.00882336
24.785 -0.0147477 -0.0102571
24.79 -0.00900984 -0.0101301
24.795 -0.0152208 -0.0113243
24.8 -0.00710841 -0.0105143
24.805 -0.0127443 -0.0110644
24.81 -0.00244392 -0.00930783
24.815 -0.00894038 -0.00933292
24.82 0.00101642 -0.00726558
24.825 -0.00179489 -0.00629896
24.83 -0.00690708 -0.00665727
24.835 -0.00115726 -0.00574238
24.84 -0.0176135 -0.00851848
24.845 -0.00882087 -0.00878837
24.85 -0.0132825 -0.00992737
24.855 -0.0168572 -0.011532
24.86 -0.00883039 -0.0110509
24.865 -0.00972693 -0.0108574
24.87 -0.00147491 -0.00896976
24.875 -0.0119086 -0.00972012
24.88 -0.00206667 -0.00822212
24.885 -0.0108991 -0.00894134
24.89 -0.00700492 -0.00867245
24.895 0.000146768 -0.00697141
24.9 -0.0164966 -0.00917974
24.905 0.00203392 -0.00697361
24.91 -0.0106859 -0.00797412
24.915 -0.00549742 -0.00765218
24.92 -0.00536223 -0.00738711
24.925 -0.00401165 -0.00691324
24.93 -0.00407253 -0.00658106
24.935 -0.00868836 -0.0073115
24.94 -0.00336074 -0.00675976
24.945 -0.0118404 -0.00813259
24.95 -0.00524989 -0.00779851
24.955 -0.0136975 -0.00932337
24.96 -0.0134771 -0.0104285
24.965 -0.0101528 -0.0105573
24.97 -0.0138113 -0.011403
24.975 -0.00222807 -0.00959622
24.98 -0.00735426 -0.00928888
24.985 -0.00253288 -0.00803661
24.99 -0.0033643 -0.00726171
24.995 -0.00536008 -0.00709933
25 -0.00301301 -0.00649123
25.005 -0.00568706 -0.00659977
25.01 -0.00664351 -0.00689333
25.015 -0.0154429 -0.00896955
25.02 -0.0143013 -0.0103014
25.025 -0.010856 -0.0105733
25.03 -0.0191355 -0.0124953
25.035 -0.00594621 -0.0111619
25.04 -0.00951172 -0.0108757
25.045 -0.00044662 -0.00873752
25.05 -0.000827592 -0.00718673
25.055 0.00377656 -0.00504816
25.06 0.00314467 -0.00357298
25.065 -0.00326048 -0.00382264
25.07 -0.000408043 -0.00343809
25.075 -0.00984092 -0.0051499
25.08 -0.00616194 -0.0056889
25.085 -0.0116056 -0.00724672
25.09 -0.014536 -0.00904109
25.095 -0.00883278 -0.00919094
25.1 -0.00623924 -0.00874393
25.105 -0.0037584 -0.0078722
25.11 -0.00484358 -0.00742664
25.115 0.00111846 -0.00583337
25.12 -0.00560504 -0.00603831
25.125 -0.00694135 -0.00647913
25.13 -0.00507279 -0.00642519
25.135 -0.0172665 -0.0089382
25.14 -0.00237146 -0.00770973
25.145 -0.0136343 -0.0091301
25.15 -0.00796463 -0.00900579
25.155 -0.0105989 -0.00944594
25.16 -0.00944175 -0.00951863
25.165 0.000459576 -0.00748106
25.17 -0.001199 -0.00627364
25.175 0.00226112 -0.00463389
25.18 -0.00586554 -0.00510361
25.185 -0.0049321 -0.00527564
25.19 -0.0081663 -0.00609061
25.195 -0.00685005 -0.00643559
25.2 -0.0106022 -0.00747987
25.205 -0.0116258 -0.00847917
25.21 -0.00334671 -0.00748524
25.215 -0.00208751 -0.00645609
25.22 -0.00374428 -0.00601574
25.225 0.000631334 -0.00476213
25.23 -0.0034914 -0.00468283
25.235 0.000887362 -0.00371427
25.24 -4.06976e-05 -0.00318905
25.245 -0.00253491 -0.00333295
25.25 -0.00269677 -0.00349542
25.255 -0.0111246 -0.00540234
25.26 -0.00940091 -0.00649433
25.265 -0.00757607 -0.00693776
25.27 -0.00202778 -0.00610405
25.275 -0.00894051 -0.00691764
25.28 -0.00587775 -0.0068846
25.285 -0.00495889 -0.00665838
25.29 -0.00676034 -0.00685379
25.295 0.000561678 -0.00545782
25.3 -0.00243753 -0.00502195
25.305 0.00313451 -0.00352352
25.31 0.00135596 -0.00276874
25.315 0.00148326 -0.0021855
25.32 0.00147236 -0.00176589
25.325 -0.00205515 -0.00221017
25.33 -0.00396206 -0.00296672
25.335 -0.00274529 -0.00330062
25.34 -0.00291278 -0.0036005
25.345 -0.00430189 -0.00412779
25.35 -0.00310189 -0.0042811
25.355 -0.00430833 -0.00465284
25.36 -0.00571997 -0.00523149
25.365 -0.00542388 -0.00560549
25.37 -0.00441309 -0.00566766
25.375 0.00210011 -0.00433888
25.38 0.000304777 -0.00370334
25.385 -0.00160655 -0.00362303
25.39 -0.00308437 -0.00387528
25.395 0.00122849 -0.00316472
25.4 -0.000892679 -0.00307508
25.405 -0.000559335 -0.00294385
25.41 -0.00700102 -0.00420203
25.415 -0.0121489 -0.00623744
25.42 -0.0127224 -0.00789113
25.425 -0.00970967 -0.00849108
25.43 -0.0100399 -0.00898624
25.435 -0.00955467 -0.00922812
25.44 -0.00715191 -0.0088775
25.445 -0.00658204 -0.00845952
25.45 0.00204463 -0.00630234
25.455 0.00189321 -0.0046794
25.46 0.00873898 -0.00200899
25.465 0.00139685 -0.00153553
25.47 0.00426452 -0.000597607
25.475 -0.0032107 -0.00148129
25.48 -0.00485993 -0.00252367
25.485 -0.00110437 -0.00254568
25.49 -0.00893491 -0.00421612
25.495 -0.00836364 -0.00536782
25.5 -0.00981588 -0.00654144
25.505 -0.00479677 -0.00636335
25.51 -0.0066481 -0.0065993
25.515 0.000429088 -0.00527449
25.52 -0.0025777 -0.00488257
25.525 0.000346186 -0.00396179
25.53 0.00390421 -0.00250938
25.535 0.000737618 -0.00207404
25.54 0.00193989 -0.00149923
25.545 -0.00417897 -0.00235828
25.55 -0.00536635 -0.00326873
25.555 -0.00465073 -0.00381261
25.56 -0.00874368 -0.00508551
25.565 -0.00232473 -0.00470042
25.57 -0.00176415 -0.00428431
25.575 0.00172692 -0.00323311
25.58 0.000875375 -0.00261627
25.585 0.000942483 -0.00214159
25.59 -0.00098889 -0.00219719
25.595 0.000112166 -0.00202011
25.6 -0.00125745 -0.00218427
25.605 -0.00221808 -0.00252153
25.61 -0.0055827 -0.00348811
25.615 -0.00482668 -0.00406291
25.62 -0.004576 -0.00444147
25.625 -0.00201192 -0.00418306
25.63 -0.0123455 -0.00614584
25.635 0.00013246 -0.00500382
25.64 -0.00353391 -0.00488825
25.645 -0.00455078 -0.005
25.65 -0.00298766 -0.00474387
25.655 -0.00115968 -0.00415558
25.66 -0.00142424 -0.00375609
25.665 -0.00797223 -0.00482075
25.67 -0.00279593 -0.00453661
25.675 -0.00759852 -0.00532031
25.68 -0.00633775 -0.00564111
25.685 -0.00370091 -0.005316
25.69 -0.00647338 -0.0056354
25.695 -0.00353903 -0.00525194
25.7 -0.00730534 -0.00573783
25.705 -0.00349452 -0.00529584
25.71 -0.00212011 -0.00465878
25.715 -0.00125256 -0.00398509
25.72 -0.00143374 -0.00350961
25.725 -0.00421071 -0.00373031
25.73 0.000848938 -0.00283369
25.735 -0.00776833 -0.0039619
25.74 -0.00492861 -0.00421866
25.745 -0.00919555 -0.00530189
25.75 -0.00753905 -0.00576019
25.755 -0.00731164 -0.00604534
25.76 -0.00141287 -0.0050065
25.765 -0.0013403 -0.00418567
25.77 -0.0023062 -0.00375356
25.775 -0.00330407 -0.00362923
25.78 0.00314348 -0.00217669
25.785 0.00290655 -0.00112595
25.79 0.00351621 -0.000209007
25.795 -0.000909622 -0.000462214
25.8 -0.00144104 -0.000784842
25.805 -0.00466458 -0.00172272
25.81 -0.00333495 -0.00216806
25.815 -0.0111499 -0.00414876
25.82 -0.00918593 -0.00523236
25.825 -0.0145119 -0.00715944
25.83 -0.00698928 -0.00701781
25.835 -0.00747487 -0.00697853
25.84 -0.000667541 -0.00549335
25.845 0.0017996 -0.00381954
25.85 0.00635334 -0.00158063
25.855 0.00779934 0.000426834
25.86 0.0117893 0.00277177
25.865 0.00532095 0.00316893
25.87 0.000420556 0.00240206
25.875 -0.00183947 0.00131016
25.88 -0.0122329 -0.00172584
25.885 -0.0116447 -0.00391708
25.89 -0.0140376 -0.00607235
25.895 -0.0159281 -0.00808705
25.9 -0.0106765 -0.00847341
25.905 -0.00102502 -0.00669801
25.91 0.00350687 -0.00436453
25.915 0.0106062 -0.00108108
25.92 0.00893529 0.00106307
25.925 0.00990172 0.00287647
25.93 0.011656 0.00458993
25.935 0.00744662 0.00496789
25.94 0.00338225 0.00436065
25.945 0.00159407 0.00348568
25.95 -0.004288 0.0015542
25.955 -0.00388334 0.000152637
25.96 -0.00981819 -0.00216308
25.965 -0.00816733 -0.00356685
25.97 -0.00288154 -0.00350505
25.975 0.00715231 -0.00133485
25.98 0.00332891 -0.00047739
25.985 0.00454709 0.000432261
25.99 0.00550748 0.00132314
25.995 0.00550808 0.00199012
26 0.0109757 0.00362698
26.005 0.00308794 0.00319454
26.01 -0.000865182 0.00201553
26.015 -0.00389975 0.00046886
26.02 -0.00391713 -0.000712204
26.025 5.44155e-05 -0.000770175
26.03 -0.00415656 -0.00168803
26.035 -0.00105992 -0.00172213
26.04 -0.00277987 -0.00208988
26.045 0.000343851 -0.00169237
26.05 0.000936524 -0.00125064
26.055 0.00346428 -0.00037072
26.06 0.00346454 0.000311326
26.065 -0.00209161 -0.000331823
26.07 0.00471605 0.000614509
26.075 0.00567661 0.00154017
26.08 0.00465056 0.0020258
26.085 0.00929003 0.00336037
26.09 0.0120146 0.0049297
26.095 0.00854932 0.00537152
26.1 0.0093873 0.00585307
26.105 0.00632993 0.00554636
26.11 0.00305809 0.00459985
26.115 0.00370664 0.00399562
26.12 0.0031855 0.00341178
26.125 -0.0063252 0.000965174
26.13 0.00282775 0.00103126
26.135 0.000842281 0.00067737
26.14 0.000225352 0.000293705
26.145 0.00842166 0.00173577
26.15 0.00614253 0.00236335
26.155 0.0118624 0.00404138
26.16 0.0207615 0.0071728
26.165 0.0146627 0.00824641
26.17 0.0130292 0.00868221
26.175 0.0063493 0.00757231
26.18 -0.0013234 0.00508665
26.185 0.00111802 0.0036906
26.19 -0.00310155 0.0017404
26.195 -0.0067531 -0.000501263
26.2 -0.00585731 -0.00199413
26.205 -0.0113046 -0.00423578
26.21 -0.00499235 -0.00456635
26.215 0.00159826 -0.00338752
26.22 0.00966228 -0.00075721
26.225 0.00991599 0.00132359
26.23 0.0124837 0.00345775
26.235 0.0181891 0.0062737
26.24 0.013672 0.00744681
26.245 0.0173402 0.00907694
26.25 0.0148393 0.0097497
26.255 0.00769836 0.00871949
26.26 0.00798667 0.00795661
26.265 0.00418555 0.00654785
26.27 -0.00071551 0.00442643
26.275 0.000746893 0.00311008
26.28 -0.00269846 0.00138903
26.285 0.00427118 0.00155283
26.29 0.00642262 0.00214054
26.295 0.00338951 0.00195749
26.3 0.00816404 0.0028273
26.305 0.00900574 0.00366776
26.31 0.0139638 0.00534263
26.315 0.0157991 0.00698609
26.32 0.015596 0.00816653
26.325 0.012062 0.00829024
26.33 0.0165399 0.00929227
26.335 0.0137509 0.00942678
26.34 0.008114 0.00830656
26.345 0.00639117 0.00706795
26.35 0.0047557 0.00575972
26.355 0.00244742 0.00426748
26.36 -0.00114015 0.00237817
26.365 0.00308674 0.00184249
26.37 0.00630402 0.00212553
26.375 0.00376509 0.00182084
26.38 0.0107173 0.00305961
26.385 0.00795666 0.00342738
26.39 0.0176557 0.00574445
26.395 0.012152 0.00633728
26.4 0.0116703 0.00667078
26.405 0.00987908 0.00653156
26.41 0.0124957 0.00695847
26.415 0.0166939 0.008141
26.42 0.00858687 0.00731146
26.425 0.00839007 0.00661155
26.43 -0.000803553 0.00414334
26.435 0.00518132 0.00351981
26.44 0.00777141 0.0035907
26.445 0.00606567 0.00329157
26.45 0.00124726 0.00206635
26.455 0.0056932 0.00208011
26.46 0.00603683 0.00217392
26.465 0.00603041 0.00226331
26.47 0.0104081 0.00325946
26.475 0.0101657 0.00397115
26.48 0.00985826 0.00444574
26.485 0.0125487 0.00535965
26.49 0.0113923 0.00580175
26.495 0.00992366 0.00580884
26.5 0.0111478 0.00604969
26.505 0.0126023 0.00651359
26.51 0.0097546 0.00624179
26.515 0.00687693 0.00540608
26.52 0.00254807 0.00384732
26.525 0.000124967 0.00214845
26.53 0.00678625 0.00225987
26.535 -0.00345676 0.000205921
26.54 0.00066875 -0.000462149
26.545 0.00072508 -0.000934447
26.55 0.00980635 0.000640567
26.555 0.0184677 0.00366979
26.56 0.0203445 0.00635769
26.565 0.0199235 0.00829358
26.57 0.0164879 0.00901803
26.575 0.00941342 0.00804502
26.58 0.012485 0.00791629
26.585 0.00910306 0.00707336
26.59 0.00913891 0.00641017
26.595 -0.00549123 0.00281268
26.6 -0.00496069 0.000182393
26.605 -0.0103201 -0.00292596
26.61 0.000149485 -0.00305687
26.615 0.000477589 -0.00305603
26.62 0.00516332 -0.00204902
26.625 0.00873173 -0.000508007
26.63 0.0151047 0.00200712
26.635 0.0113772 0.00312531
26.64 0.0124662 0.00419218
26.645 0.0109343 0.00465971
26.65 0.00795838 0.00437291
26.655 -5.84171e-05 0.00245242
26.66 -0.00216465 0.000545984
26.665 -0.00857888 -0.00223748
26.67 -0.00170828 -0.00288397
26.675 -0.00422263 -0.00386848
26.68 0.000211568 -0.00365577
26.685 0.00763175 -0.00190178
26.69 0.00306441 -0.00150497
26.695 0.0107491 0.000420861
26.7 0.00830714 0.00137311
26.705 0.00733141 0.00188336
26.71 0.00297125 0.00134289
26.715 0.000177437 0.000334248
26.72 0.00317118 0.000182407
26.725 -0.00267407 -0.00115741
26.73 0.00307356 -0.000971436
26.735 0.00347759 -0.000744895
26.74 -0.00291325 -0.00191509
26.745 -0.000930051 -0.00238276
26.75 0.0043927 -0.00161438
26.755 0.00388211 -0.00113102
26.76 0.00206536 -0.00114525
26.765 -0.000128595 -0.00160659
26.77 0.00659354 -0.000543728
26.775 0.00167405 -0.000760943
26.78 0.00692701 0.000171806
26.785 0.00261493 -2.62285e-05
26.79 0.00183711 -0.000342189
26.795 0.0004103 -0.000881593
26.8 0.000301803 -0.0013146
26.805 0.000278502 -0.00164031
26.81 0.00161609 -0.00160279
26.815 0.00076933 -0.00174987
26.82 -0.00101304 -0.00223131
26.825 -0.00206768 -0.00281425
26.83 -0.000304837 -0.00287985
26.835 -0.00398781 -0.00369281
26.84 -0.000108661 -0.00348373
26.845 0.00360425 -0.00253546
26.85 0.00298929 -0.00193951
26.855 0.00610244 -0.000834699
26.86 0.00590372 -4.5234e-05
26.865 0.00717554 0.000807218
26.87 0.00695355 0.00138509
26.875 0.002921 0.000958621
26.88 0.00552114 0.00116087
26.885 -0.00299416 -0.000484429
26.89 0.000854808 -0.000936586
26.895 -0.00835852 -0.00321702
26.9 0.00199185 -0.00277124
26.905 -0.00254228 -0.00337534
26.91 -0.00136628 -0.00357966
26.915 -0.00352804 -0.00418218
26.92 -0.000525446 -0.00399637
26.925 -0.000443001 -0.00382178
26.93 -0.0023718 -0.00408193
26.935 0.00497003 -0.00273555
26.94 0.000541685 -0.00263652
26.945 0.00731729 -0.0011437
26.95 0.000425426 -0.00146513
26.955 0.000661952 -0.00167277
26.96 -0.000648256 -0.00211066
26.965 -0.001739 -0.00267497
26.97 0.00357001 -0.00199534
26.975 -0.00213151 -0.00268093
26.98 0.000385061 -0.00267679
26.985 -0.00145922 -0.00306218
26.99 -0.00172307 -0.00340946
26.995 0.00703278 -0.00183996
27 0.00151919 -0.00180583
27.005 -0.00117319 -0.00235296
27.01 0.00291904 -0.00191522
27.015 -0.00139747 -0.0024939
27.02 0.00261568 -0.00209543
27.025 0.00114739 -0.00210589
27.03 0.00800026 -0.000683752
27.035 0.0044561 -0.000365829
27.04 0.00511618 -6.06435e-07
27.045 0.0086172 0.000997366
27.05 0.00432104 0.000825798
27.055 0.0071409 0.00126548
27.06 -0.00379107 -0.000726302
27.065 0.00112362 -0.00121927
27.07 -0.00596936 -0.00308699
27.075 -0.00281455 -0.00384333
27.08 -0.00242583 -0.00432635
27.085 -0.00230407 -0.00464953
27.09 0.000939363 -0.00420078
27.095 -0.00277898 -0.00463162
27.1 0.00595166 -0.00310876
27.105 0.00742583 -0.0016393
27.11 0.0072838 -0.000562243
27.115 -0.00105451 -0.00151262
27.12 0.00424561 -0.00112569
27.125 0.000812582 -0.00156393
27.13 -0.00180552 -0.00245252
27.135 -0.00216912 -0.00320208
27.14 -0.00297491 -0.00394545
27.145 -0.00351318 -0.00461428
27.15 -0.00127029 -0.00464584
27.155 0.00263568 -0.00383427
27.16 0.00696345 -0.00230335
27.165 0.0137854 0.00028587
27.17 0.0082013 0.00106687
27.175 0.00592298 0.00115387
27.18 0.00945863 0.00192818
27.185 0.00330772 0.00119642
27.19 0.00110714 0.00015335
27.195 -0.00544847 -0.00202918
27.2 -0.00290271 -0.00315771
27.205 -0.00149616 -0.00371551
27.21 -0.0042131 -0.00469589
27.215 0.0022842 -0.00407318
27.22 0.00259453 -0.00352842
27.225 0.00252694 -0.00312564
27.23 0.00585442 -0.00212526
27.235 -0.00192937 -0.00300449
27.24 0.00405952 -0.00241855
27.245 -0.00264473 -0.003379
27.25 -0.00933701 -0.0055213
27.255 0.00120976 -0.00492479
27.26 -0.00647661 -0.00607363
27.265 0.00466907 -0.00460052
27.27 -0.00213222 -0.00489904
27.275 0.00483794 -0.00365419
27.28 0.00705355 -0.00224875
27.285 0.00655026 -0.00129371
27.29 0.00440825 -0.00104504
27.295 0.00352233 -0.00105949
27.3 0.00427745 -0.000934706
27.305 -0.000156607 -0.00179088
27.31 -0.00602297 -0.00368454
27.315 -0.0109421 -0.00615323
27.32 -0.00448238 -0.00665018
27.325 0.00092848 -0.00588435
27.33 0.00204235 -0.00505685
27.335 0.00710967 -0.00336125
27.34 0.0110968 -0.00125003
27.345 0.00812236 -0.000283772
27.35 0.00633409 4.51021e-05
27.355 0.00485925 -4.70082e-05
27.36 -0.000205433 -0.00120041
27.365 -0.00456856 -0.00301719
27.37 -0.00502132 -0.00450857
27.375 -0.00632436 -0.00591223
27.38 -0.0017065 -0.00600403
27.385 -0.005573 -0.00687479
27.39 -0.00835856 -0.00810686
27.395 -0.00086047 -0.00744259
27.4 0.00371358 -0.00597449
27.405 0.00537707 -0.00450679
27.41 0.00994872 -0.00244077
27.415 0.00621204 -0.00167797
27.42 0.00450281 -0.00148337
27.425 0.000907365 -0.00211838
27.43 0.00272178 -0.00223971
27.435 0.00309028 -0.00228263
27.44 -0.00501096 -0.00404708
27.445 -0.00779194 -0.00596812
27.45 -0.00912742 -0.0077077
27.455 -0.00174118 -0.0074762
27.46 -0.00411573 -0.00777594
27.465 0.0011019 -0.00689738
27.47 -0.00251448 -0.00698241
27.475 -0.000975231 -0.006726
27.48 0.00154911 -0.00598802
27.485 0.00361397 -0.00499735
27.49 0.000274909 -0.00496295
27.495 -0.000686996 -0.00513625
27.5 0.00462391 -0.00416878
27.505 0.00075101 -0.00426227
27.51 -0.00678293 -0.00593691
27.515 -0.00616317 -0.00707343
27.52 9.38307e-06 -0.00664749
27.525 -0.00445753 -0.00726329
27.53 -0.00870604 -0.00862138
27.535 -0.0155126 -0.0110667
27.54 -0.0112582 -0.0120153
27.545 -0.00840179 -0.0121062
27.55 -0.0114126 -0.0127675
27.555 -0.0114591 -0.013252
27.56 -0.0102996 -0.013332
27.565 0.00208777 -0.0107629
27.57 0.000953294 -0.00903483
27.575 0.00243006 -0.00741793
27.58 0.00816423 -0.00499167
27.585 0.0102032 -0.00275278
27.59 -0.00057805 -0.00336487
27.595 -0.00206181 -0.0041762
27.6 -0.00415744 -0.00525477
27.605 -0.00961132 -0.00724555
27.61 -0.0153378 -0.00997591
27.615 -0.022728 -0.0135766
27.62 -0.0119676 -0.0140311
27.625 -0.0105059 -0.0140343
27.63 -0.00447765 -0.0127334
27.635 -0.00124829 -0.0110425
27.64 0.0053981 -0.00835367
27.645 0.00352781 -0.00671808
27.65 0.00457358 -0.00527333
27.655 0.00230796 -0.00468205
27.66 -0.0028595 -0.00534908
27.665 -0.0096941 -0.00731844
27.67 -0.0119706 -0.0092982
27.675 -0.0196564 -0.012426
27.68 -0.0178981 -0.0144124
27.685 -0.0169969 -0.0157038
27.69 -0.0165114 -0.0165384
27.695 -0.0118271 -0.0161549
27.7 -0.00521646 -0.0144423
27.705 -0.00572178 -0.0132149
27.71 -0.000304976 -0.0111379
27.715 0.00198609 -0.00908004
27.72 0.001984 -0.00753289
27.725 -0.00219807 -0.00726005
27.73 -2.59716e-05 -0.00662579
27.735 -0.00558439 -0.00734073
27.74 -0.00657126 -0.00810982
27.745 -0.0158286 -0.010655
27.75 -0.0155119 -0.0125334
27.755 -0.0106272 -0.0129274
27.76 -0.0145729 -0.0140425
27.765 -0.0129405 -0.0145324
27.77 -0.0135013 -0.0150038
27.775 -0.0137187 -0.0153862
27.78 -0.0103975 -0.0149522
27.785 -0.00725017 -0.0139477
27.79 -0.0148433 -0.0147617
27.795 -0.0128551 -0.0149392
27.8 -0.00801353 -0.0140486
27.805 -0.0094631 -0.013663
27.81 -0.00461916 -0.0123474
27.815 -0.0114296 -0.0127716
27.82 -0.00904551 -0.0126006
27.825 -0.0161259 -0.0139552
27.83 -0.0165586 -0.0150678
27.835 -0.0111246 -0.0147617
27.84 -0.0160473 -0.0155515
27.845 -0.0133216 -0.0155633
27.85 -0.0216014 -0.0172856
27.855 -0.0132274 -0.0168128
27.86 -0.0146312 -0.0167278
27.865 -0.0187943 -0.0175144
27.87 -0.0106254 -0.0163733
27.875 -0.0193531 -0.0173203
27.88 -0.0121685 -0.0165132
27.885 -0.00897502 -0.0152153
27.89 -0.0104317 -0.0145303
27.895 -0.0151588 -0.0149985
27.9 -0.0125321 -0.014801
27.905 -0.00503587 -0.0130753
27.91 -0.00835021 -0.0124736
27.915 -0.0176758 -0.0139859
27.92 -0.0180966 -0.0152249
27.925 -0.0180218 -0.0161488
27.93 -0.0167469 -0.0165763
27.935 -0.020572 -0.0176916
27.94 -0.0127571 -0.016882
27.945 -0.0237036 -0.0185522
27.95 -0.0160773 -0.0182005
27.955 -0.0151753 -0.0177211
27.96 -0.0158299 -0.0174771
27.965 -0.00671673 -0.0153701
27.97 -0.00807107 -0.0140547
27.975 -0.00679655 -0.0127981
27.98 -0.0176422 -0.0141323
27.985 -0.00958786 -0.0134696
27.99 -0.0134921 -0.0137945
27.995 -0.0187598 -0.0151517
28 -0.0166771 -0.015747
28.005 -0.0278004 -0.0185259
28.01 -0.0121024 -0.0173219
28.015 -0.0236325 -0.0188066
28.02 -0.0208643 -0.0193295
28.025 -0.0158033 -0.0186362
28.03 -0.0146538 -0.0178423
28.035 -0.00972956 -0.0161886
28.04 -0.0101205 -0.0150115
28.045 -0.011193 -0.0143443
28.05 -0.00743796 -0.0130602
28.055 -0.0148381 -0.013651
28.06 -0.0111564 -0.0133417
28.065 -0.017612 -0.0144706
28.07 -0.0185405 -0.0155296
28.075 -0.0183346 -0.0162879
28.08 -0.015543 -0.0162728
28.085 -0.0266705 -0.0185844
28.09 -0.0173957 -0.0183713
28.095 -0.0174541 -0.0181973
28.1 -0.0128174 -0.0170697
28.105 -0.00758699 -0.0150997
28.11 -0.00922018 -0.0139448
28.115 -0.00488216 -0.0121606
28.12 -0.012913 -0.0125016
28.125 -0.00530065 -0.0111752
28.13 -0.00812937 -0.0107777
28.135 -0.0109744 -0.0110937
28.14 -0.0129835 -0.0117712
28.145 -0.0195038 -0.0136626
28.15 -0.0164448 -0.0144566
28.155 -0.0203005 -0.0158584
28.16 -0.0172719 -0.0162712
28.165 -0.0204988 -0.0172426
28.17 -0.0142612 -0.0166475
28.175 -0.00933697 -0.015141
28.18 -0.00832002 -0.0137718
28.185 -0.00946873 -0.0129716
28.19 -0.00960422 -0.0123979
28.195 -0.0126788 -0.0126134
28.2 -0.0104757 -0.012323
28.205 -0.0128509 -0.0126076
28.21 -0.0104948 -0.0123332
28.215 -0.0213538 -0.0144044
28.22 -0.0139138 -0.0144075
28.225 -0.0107801 -0.0137433
28.23 -0.00492212 -0.0120083
28.235 -0.00945614 -0.011645
28.24 -0.00724246 -0.0109155
28.245 -0.00692961 -0.0103087
28.25 -0.0164409 -0.011853
28.255 -0.0115768 -0.0120103
28.26 -0.0167832 -0.0132213
28.265 -0.0173653 -0.0142508
28.27 -0.0157749 -0.0146831
28.275 -0.0190224 -0.0156723
28.28 -0.0143275 -0.0154127
28.285 -0.0061157 -0.0134711
28.29 -0.00268103 -0.0112693
28.295 -0.00245048 -0.00955788
28.3 -0.00251742 -0.00829108
28.305 -0.00280734 -0.00741861
28.31 -0.0146916 -0.00927554
28.315 -0.0123176 -0.0102051
28.32 -0.0238054 -0.0133265
28.325 -0.0218504 -0.0152749
28.33 -0.0221895 -0.0167995
28.335 -0.020818 -0.0176317
28.34 -0.0132214 -0.016628
28.345 -0.0114663 -0.0154703
28.35 -0.00849306 -0.0139412
28.355 -0.00461572 -0.011951
28.36 0.00255692 -0.00893785
28.365 0.00457445 -0.00624744
28.37 -0.00457664 -0.00615801
28.375 -0.00716918 -0.00666703
28.38 -0.0104559 -0.00777366
28.385 -0.0162091 -0.00983869
28.39 -0.0145618 -0.011067
28.395 -0.0229313 -0.0137476
28.4 -0.0255053 -0.0162959
28.405 -0.0233557 -0.0177351
28.41 -0.0153187 -0.0170954
28.415 -0.0101157 -0.015468
28.42 -0.00729738 -0.0136077
28.425 -0.00124233 -0.0109034
28.43 -0.00184169 -0.00897758
28.435 -0.000284166 -0.00720082
28.44 -0.0048096 -0.00682229
28.445 -0.00373712 -0.00633654
28.45 -0.0136736 -0.00807469
28.455 -0.00787721 -0.00819439
28.46 -0.0117112 -0.00909927
28.465 -0.0200689 -0.0115409
28.47 -0.0144965 -0.0122114
28.475 -0.0133458 -0.0124618
28.48 -0.00802581 -0.0115172
28.485 -0.0135132 -0.011934
28.49 -0.00807158 -0.0110905
28.495 -0.00836588 -0.0104971
28.5 -0.000567077 -0.00840236
28.505 0.000275885 -0.00663856
28.51 0.00364994 -0.00461029
28.515 -0.00665473 -0.0052565
28.52 -0.00690355 -0.0058213
28.525 -0.000921438 -0.00501725
28.53 -0.00442742 -0.00516401
28.535 -0.0108177 -0.00663418
28.54 -0.00790513 -0.00715033
28.545 -0.012601 -0.00852871
28.55 -0.0102476 -0.00907562
28.555 -0.00966662 -0.00936017
28.56 -0.00594794 -0.0087839
28.565 -0.00784929 -0.00873805
28.57 -0.00543618 -0.00818377
28.575 -0.00369471 -0.00739451
28.58 -0.00196004 -0.00643033
28.585 -0.00278299 -0.00587639
28.59 -0.00606957 -0.00615387
28.595 -0.00430983 -0.00600015
28.6 -0.00416214 -0.00585868
28.605 -0.00366636 -0.0056549
28.61 -0.00687835 -0.00618155
28.615 -0.0108274 -0.0074133
28.62 -0.0116992 -0.00852314
28.625 -0.0138116 -0.00979698
28.63 -0.0141076 -0.010801
28.635 -0.0112344 -0.0109331
28.64 -0.0165278 -0.0121092
28.645 -0.00871171 -0.0113286
28.65 -0.00551167 -0.0100264
28.655 0.000940474 -0.00766806
28.66 0.000856721 -0.00589005
28.665 0.00334223 -0.0040278
28.67 0.00178613 -0.00296219
28.675 -0.00352981 -0.00329431
28.68 -0.00327525 -0.00351345
28.685 -0.00705674 -0.00449172
28.69 -0.0102867 -0.00591985
28.695 -0.00626411 -0.00615988
28.7 -0.00874124 -0.00685875
28.705 -0.0107515 -0.00780453
28.71 -0.00860069 -0.00805064
28.715 -0.00342841 -0.00714218
28.72 -0.00157164 -0.00604795
28.725 0.0015804 -0.00455694
28.73 0.000726449 -0.00360998
28.735 0.00327666 -0.00237305
28.74 -0.00148417 -0.00244675
28.745 -0.00246445 -0.00272719
28.75 -0.00495413 -0.003475
28.755 -0.00773679 -0.00463469
28.76 -0.00590918 -0.00513575
28.765 -0.00784062 -0.00592194
28.77 -0.00988577 -0.00693699
28.775 -0.00738751 -0.00717369
28.78 -0.0101955 -0.00792288
28.785 -0.00630978 -0.00765656
28.79 -0.00317537 -0.00677943
28.795 -0.00252513 -0.00596914
28.8 0.00380814 -0.0040156
28.805 -0.00409894 -0.00419894
28.81 -0.0064648 -0.0048338
28.815 -0.00857815 -0.00575497
28.82 -0.00618306 -0.0059461
28.825 -0.012854 -0.0074729
28.83 -0.0102739 -0.00806065
28.835 -0.00104636 -0.00655297
28.84 -0.00749405 -0.00673564
28.845 0.00459539 -0.00432712
28.85 -0.00548012 -0.00461431
28.855 0.000698235 -0.00353644
28.86 -0.00673681 -0.004276
28.865 -0.00922882 -0.00536159
28.87 -0.00283506 -0.00483343
28.875 -0.0145933 -0.0068935
28.88 -0.00165805 -0.00573216
28.885 -0.0103727 -0.00666005
28.89 -0.00139083 -0.00545982
28.895 0.000969654 -0.00405459
28.9 0.00527037 -0.00208326
28.905 -0.0034647 -0.00242981
28.91 -0.00657868 -0.00335708
28.915 -0.00259569 -0.00322085
28.92 -0.00861252 -0.00438426
28.925 0.00127986 -0.00318575
28.93 -0.011382 -0.00492101
28.935 0.000811417 -0.00367211
28.94 -0.00616186 -0.004183
28.945 -0.00107289 -0.00349008
28.95 -0.00343645 -0.00345516
28.955 -0.0136203 -0.00555939
28.96 0.00368705 -0.0035034
28.965 -0.0172619 -0.00632319
28.97 -0.00209684 -0.00526391
28.975 -0.00437231 -0.00490801
28.98 0.000595272 -0.00358938
28.985 0.00576085 -0.00149788
28.99 0.00135336 -0.000833729
28.995 0.00923315 0.00130795
29 0.000368404 0.00104496
29.005 0.000945274 0.000951362
29.01 0.000476547 0.000756852
29.015 -0.00343929 -0.000223692
29.02 0.00264824 0.000294235
29.025 -0.00896342 -0.00175956
29.03 -0.0104898 -0.00363094
29.035 -0.0060171 -0.00409274
29.04 -0.0107426 -0.00541658
29.045 0.00438966 -0.00322094
29.05 -0.00944022 -0.00443002
29.055 -4.75356e-05 -0.00335876
29.06 0.00324154 -0.00184683
29.065 0.00918902 0.000559864
29.07 0.00918991 0.00237042
29.075 0.0048504 0.00282069
29.08 0.0064767 0.00347855
29.085 0.00845252 0.00435812
29.09 0.0025477 0.00375535
29.095 -0.00176932 0.00237036
29.1 -0.0104836 -0.000524215
29.105 -0.00778117 -0.00214355
29.11 -0.00783092 -0.00336776
29.115 0.00423263 -0.00174757
29.12 -0.00646717 -0.00274768
29.125 0.0021854 -0.0016761
29.13 0.00860889 0.000489681
29.135 0.00692901 0.00178442
29.14 0.00929452 0.00324892
29.145 0.00554693 0.00355379
29.15 0.00464786 0.00356993
29.155 -0.000672662 0.00245388
29.16 0.00590809 0.00297068
29.165 -0.00202484 0.00169256
29.17 -0.00684646 -0.000289586
29.175 -0.000682305 -0.000491641
29.18 -0.000906735 -0.000676986
29.185 0.00479163 0.000391236
29.19 0.00632888 0.00152683
29.195 0.0067964 0.00249109
29.2 0.0127369 0.00445786
29.205 0.00382895 0.00406424
29.21 0.014024 0.00587972
29.215 0.00197513 0.00470858
29.22 0.00410883 0.00424584
29.225 0.00669462 0.0044246
29.23 -0.00206709 0.00271099
29.235 0.00127925 0.00211112
29.24 -0.00621129 9.18696e-05
29.245 -0.000726452 -0.000272889
29.25 -0.000273184 -0.000430652
29.255 0.00632647 0.000855505
29.26 0.00720777 0.00203334
29.265 0.0103462 0.00359286
29.27 0.0106829 0.00484028
29.275 0.00414117 0.00441006
29.28 0.00981885 0.00526451
29.285 0.00515339 0.00492581
29.29 -0.00221703 0.00311926
29.295 -0.00182233 0.00183832
29.3 0.00116006 0.00150628
29.305 0.00247098 0.00154585
29.31 0.00391613 0.0018948
29.315 0.0146685 0.00442378
29.32 0.014733 0.00635017
29.325 0.0165632 0.00817622
29.33 0.0199917 0.010249
29.335 0.0145109 0.010624
29.34 0.00915898 0.00974162
29.345 0.00302577 0.00774989
29.35 0.0053916 0.00671319
29.355 -0.0013791 0.00450021
29.36 -0.000154997 0.0030857
29.365 0.00261438 0.00261035
29.37 -0.000599369 0.00159842
29.375 0.0122449 0.00354845
29.38 0.018489 0.00634836
29.385 0.0149828 0.00773285
29.39 0.0213966 0.0101084
29.395 0.016512 0.0108546
29.4 0.0140049 0.0108601
29.405 0.0067211 0.00930307
29.41 -0.00149893 0.00637513
29.415 0.00635989 0.00579675
29.42 -0.00285074 0.00342919
29.425 0.00108893 0.00247307
29.43 0.00331377 0.00223749
29.435 0.00661198 0.00276859
29.44 0.00638157 0.0031446
29.445 0.0163174 0.00552664
29.45 0.0172629 0.00753113
29.455 0.0216097 0.0099494
29.46 0.0184329 0.0110917
29.465 0.0136191 0.0109134
29.47 0.00790175 0.00954535
29.475 0.00452202 0.00777691
29.48 0.00707564 0.00696269
29.485 0.00173613 0.00522583
29.49 0.00550056 0.00470582
29.495 0.00883738 0.00502425
29.5 0.0112299 0.00577868
29.505 0.0180724 0.00779296
29.51 0.0141629 0.00849457
29.515 0.0169041 0.00958988
29.52 0.0108483 0.00913141
29.525 0.00564062 0.00767409
29.53 0.00542872 0.00651798
29.535 0.0103942 0.00668084
29.54 0.0111934 0.00696859
29.545 0.0110785 0.00715963
29.55 0.00529569 0.00608967
29.555 0.0119417 0.00666955
29.56 0.014068 0.00755237
29.565 0.0146517 0.0083353
29.57 0.0136303 0.00870375
29.575 0.0169254 0.00965425
29.58 0.0138038 0.0097029
29.585 0.0163025 0.0102384
29.59 0.0116353 0.00964281
29.595 0.012683 0.00938731
29.6 0.0167237 0.0100267
29.605 0.00934967 0.00894461
29.61 0.00666834 0.0075448
29.615 0.0115722 0.00751136
29.62 0.0121302 0.00759855
29.625 0.0192739 0.00915314
29.63 0.0118885 0.00877113
29.635 0.0169217 0.00952396
29.64 0.0148382 0.0096407
29.645 0.0170008 0.0101572
29.65 0.0104092 0.00914956
29.655 0.0116241 0.00861957
29.66 0.00842847 0.00753438
29.665 0.00743905 0.00649027
29.67 0.0110559 0.00645851
29.675 0.00539379 0.00524116
29.68 0.00738022 0.00474473
29.685 0.00693712 0.00428302
29.69 0.00943435 0.00446658
29.695 0.0123008 0.00521041
29.7 0.00718075 0.004709
29.705 0.00690545 0.00428252
29.71 0.0101932 0.00465212
29.715 0.00397422 0.00363959
29.72 0.00817639 0.00376408
29.725 0.00924617 0.00409322
29.73 0.00593552 0.00365252
29.735 0.00972868 0.00412754
29.74 0.0119808 0.00496392
29.745 0.0130799 0.00582283
29.75 0.0145405 0.00677477
29.755 0.0108783 0.00670998
29.76 0.00964238 0.00638613
29.765 0.0168456 0.00762995
29.77 0.011815 0.00750155
29.775 0.0104762 0.00709273
29.78 0.00720675 0.00608148
29.785 0.00532765 0.00491279
29.79 0.0115766 0.0053303
29.795 0.0109457 0.00550794
29.8 0.0144776 0.00636783
29.805 0.0149446 0.00711174
29.81 0.0128247 0.00720595
29.815 0.0116378 0.00701109
29.82 0.0100937 0.00652629
29.825 0.0107389 0.00627417
29.83 0.0111924 0.00615608
29.835 0.0112423 0.00606466
29.84 0.0122895 0.00620304
29.845 0.00505576 0.0047656
29.85 0.00676113 0.00402623
29.855 0.00880548 0.00389282
29.86 0.0130584 0.00467401
29.865 0.00336491 0.00321485
29.87 0.00300536 0.0020302
29.875 0.00733136 0.00204767
29.88 0.00509493 0.00158381
29.885 0.0182994 0.00400116
29.89 -0.00331882 0.00130076
29.895 0.0182529 0.00376948
29.9 -0.00504324 0.000741659
29.905 0.00593073 0.000753915
29.91 0.00616855 0.000827124
29.915 -0.0010817 -0.000639006
29.92 0.0104245 0.000677171
29.925 -0.00798897 -0.00216683
29.93 0.0143262 0.000369849
29.935 -0.000403501 -0.000788867
29.94 0.0108435 0.000698536
29.945 0.010401 0.00174124
29.95 -0.00115499 9.63018e-05
29.955 0.00827999 0.000823946
29.96 -0.0101657 -0.00248439
29.965 0.00648425 -0.00149737
29.97 0.0036635 -0.00133817
29.975 -0.00040922 -0.00206464
29.98 0.00208576 -0.00207983
29.985 -0.00534879 -0.00365027
29.99 0.00368824 -0.002931
29.995 -0.00289105 -0.0037441
30 0.00401645 -0.00290005
