# Generated from ../data/13JUL2013/007.dat
time T_s gyro_x steer v
21 0.135178 0.00732083 -0.00251327 3.99778
21.005 0.0974232 0.00253428 -0.00251327 4.00837
21.01 0.0666786 0.00179952 -0.00251327 4.00305
21.015 0.0986739 0.00894292 -0.00251327 4.00192
21.02 0.116957 0.00765472 -0.00219911 4.01138
21.025 0.130137 0.00760021 -0.00219911 4.00524
21.03 0.103196 0.00200866 -0.00188496 4.00351
21.035 0.099003 0.00385074 -0.00188496 4.00226
21.04 0.100264 0.00413403 -0.00188496 4.01163
21.045 0.0962003 0.00331591 -0.00188496 4.00542
21.05 0.117163 0.00600151 -0.0015708 4.00365
21.055 0.0912542 9.1196e-05 -0.0015708 4.01264
21.06 0.0670768 -0.000882193 -0.0015708 4.00616
21.065 0.0772935 0.00249918 -0.0015708 4.01447
21.07 0.122585 0.00800034 -0.00188496 4.00749
21.075 0.0941202 -0.000576808 -0.00188496 4.00515
21.08 0.122572 0.00586875 -0.00188496 4.01374
21.085 0.13804 0.00519664 -0.00188496 4.00696
21.09 0.116785 0.000915839 -0.00219911 4.01505
21.095 0.110491 0.0020762 -0.00219911 4.00792
21.1 0.144402 0.00722843 -0.00219911 4.00546
21.105 0.156408 0.00541508 -0.00219911 4.01396
21.11 0.122124 -0.00046099 -0.00219911 4.00712
21.115 0.154944 0.00732626 -0.00219911 4.00489
21.12 0.07155 -0.00754517 -0.00219911 4.00326
21.125 0.0727513 0.000952056 -0.00251327 4.00207
21.13 0.0621442 -0.00096272 -0.00251327 4.01149
21.135 0.0392132 -0.00325593 -0.00251327 4.00532
21.14 0.0454803 -0.000572771 -0.00251327 4.01386
21.145 0.0575915 0.000328158 -0.00251327 4.00705
21.15 0.101622 0.004974 -0.00251327 4.00483
21.155 0.137907 0.00544124 -0.00251327 4.0135
21.16 0.141026 0.00239572 -0.00251327 4.00679
21.165 0.165645 0.0053528 -0.00251327 4.01493
21.17 0.194142 0.0070424 -0.00251327 4.00782
21.175 0.155446 -0.00105786 -0.00251327 4.0054
21.18 0.162503 0.00410539 -0.00282743 4.00363
21.185 0.11456 -0.00323803 -0.00282743 4.00234
21.19 0.0897938 -0.00169035 -0.00314159 4.0014
21.195 0.0564523 -0.00367433 -0.00345575 4.00072
21.2 0.0648374 0.000549362 -0.00345575 4.00022
21.205 0.108353 0.00558427 -0.00345575 3.99986
21.21 0.0624495 -0.00519059 -0.00345575 3.99959
21.215 0.0949285 0.00403294 -0.00376991 3.9994
21.22 0.102871 0.0018293 -0.00376991 3.99926
21.225 0.187043 0.0126953 -0.00376991 3.99916
21.23 0.279454 0.0170397 -0.00345575 3.99908
21.235 0.287659 0.00951461 -0.00345575 3.98874
21.24 0.306636 0.0116447 -0.00345575 3.99424
21.245 0.271117 0.00487616 -0.00314159 3.9955
21.25 0.284412 0.0106304 -0.00314159 3.98613
21.255 0.245699 0.00416449 -0.00314159 3.99234
21.26 0.210494 0.00332908 -0.00314159 3.99412
21.265 0.127133 -0.00468953 -0.00314159 3.99541
21.27 0.091201 -0.00154864 -0.00314159 3.99635
21.275 0.0553608 -0.00323088 -0.00314159 4.00733
21.28 0.0572689 0.000402694 -0.00314159 4.00229
21.285 0.141266 0.0116374 -0.00314159 4.00136
21.29 0.230839 0.0158156 -0.00314159 4.00069
21.295 0.24897 0.0097218 -0.00314159 4.0002
21.3 0.2525 0.00867568 -0.00314159 3.99984
21.305 0.257011 0.00883447 -0.00282743 3.99958
21.31 0.286118 0.0127007 -0.00282743 3.99939
21.315 0.297262 0.0113335 -0.00251327 3.99925
21.32 0.297722 0.0106389 -0.00251327 3.99915
21.325 0.207091 -0.00170794 -0.00251327 3.99908
21.33 0.115974 -0.00538349 -0.00251327 4.00931
21.335 0.0845065 -0.00127171 -0.00219911 4.00374
21.34 0.102656 0.004097 -0.00219911 4.00242
21.345 0.175292 0.0121329 -0.00219911 4.01174
21.35 0.149526 0.00152657 -0.00219911 4.00551
21.355 0.168364 0.00660423 -0.00219911 4.00371
21.36 0.19714 0.00874781 -0.00219911 4.00239
21.365 0.28605 0.0183646 -0.00219911 4.00144
21.37 0.361864 0.0201803 -0.00188496 3.99046
21.375 0.330965 0.00879106 -0.00188496 3.99549
21.38 0.326913 0.0116766 -0.00188496 3.99641
21.385 0.317206 0.0110963 -0.00188496 3.99709
21.39 0.33208 0.0144713 -0.00188496 3.99757
21.395 0.291211 0.0073017 -0.0015708 3.99793
21.4 0.262026 0.00751592 -0.0015708 3.99819
21.405 0.209217 0.00320178 -0.0015708 3.99838
21.41 0.167484 0.0022463 -0.00125664 3.99851
21.415 0.100858 -0.00301229 -0.00125664 3.98833
21.42 0.123597 0.00651516 -0.00125664 3.98365
21.425 0.101922 0.00101302 -0.00125664 3.98025
21.43 0.124614 0.00604862 -0.00125664 3.98806
21.435 0.163227 0.00873822 -0.000942478 3.98071
21.44 0.214487 0.0119976 -0.000942478 3.9781
21.445 0.226951 0.00868864 -0.000942478 3.97621
21.45 0.263792 0.0123402 -0.000628319 3.97482
21.455 0.260674 0.00838776 -0.000628319 3.97382
21.46 0.227837 0.0042249 -0.000628319 3.97308
21.465 0.27547 0.0142857 -0.000628319 3.97255
21.47 0.242012 0.00462386 -0.000314159 3.97216
21.475 0.220716 0.00503286 -0.000314159 3.98216
21.48 0.199127 0.00418665 -0.000314159 3.97642
21.485 0.165347 0.00156271 -0.000314159 3.96469
21.49 0.168493 0.0052289 -0.000314159 3.96918
21.495 0.165565 0.00440981 -0.000314159 3.96971
21.5 0.219543 0.0122094 -0.000314159 3.97009
21.505 0.236901 0.00928851 -0.000314159 3.97037
21.51 0.250892 0.00960045 -0.000314159 3.97057
21.515 0.237073 0.00633673 -0.000314159 3.981
21.52 0.191811 0.00145007 -0.000314159 3.97557
21.525 0.186096 0.00510069 -0.000314159 3.97436
21.53 0.170419 0.00339621 -0.000314159 3.97348
21.535 0.120159 -0.00222811 -0.000314159 3.97284
21.54 0.11397 0.00168588 -0.000314159 3.97237
21.545 0.0749305 -0.0034486 -0.000314159 3.97203
21.55 0.0795937 0.000765334 -0.000314159 3.97178
21.555 0.101703 0.00308844 -0.000314159 3.9716
21.56 0.0789849 -0.00301318 0 3.98175
21.565 0.0985761 0.00176208 0 3.97612
21.57 0.071115 -0.00430531 0 3.96447
21.575 0.108157 0.00324643 0 3.96902
21.58 0.131943 0.00267974 0 3.96959
21.585 0.128583 -0.000347605 0 3.97
21.59 0.12723 -0.00031369 0 3.96002
21.595 0.122785 -0.00107727 0 3.96578
21.6 0.157756 0.00423477 0 3.95694
21.605 0.190415 0.00514768 0 3.96354
21.61 0.17839 0.000236661 0 3.95531
21.615 0.167222 -0.000254351 0 3.96234
21.62 0.129957 -0.00404232 -0.000314159 3.95444
21.625 0.118329 -0.00217692 -0.000314159 3.96171
21.63 0.107883 -0.00258445 -0.000314159 3.95398
21.635 0.109148 -0.0016601 -0.000314159 3.96138
21.64 0.100118 -0.00317474 -0.000314159 3.95374
21.645 0.113448 -0.000702806 -0.000314159 3.9612
21.65 0.104355 -0.00341871 -0.000314159 3.95361
21.655 0.100409 -0.00292633 -0.000628319 3.95082
21.66 0.0920482 -0.00392598 -0.000628319 3.94879
21.665 0.072143 -0.00621398 -0.000628319 3.9576
21.67 0.106207 0.000844081 -0.000942478 3.95098
21.675 0.134728 0.00115843 -0.000942478 3.95919
21.68 0.165855 0.0026253 -0.000942478 3.96243
21.685 0.165522 -0.00056316 -0.000942478 3.96479
21.69 0.152619 -0.00229959 -0.000942478 3.95622
21.695 0.168668 0.00111716 -0.000942478 3.96301
21.7 0.168108 -0.000558986 -0.000942478 3.96521
21.705 0.171415 0.000323744 -0.00125664 3.96681
21.71 0.153161 -0.00258171 -0.00125664 3.96798
21.715 0.124406 -0.00485799 -0.00125664 3.96883
21.72 0.141996 0.000755682 -0.0015708 3.96945
21.725 0.142291 -0.00110889 -0.0015708 3.98019
21.73 0.124879 -0.00354661 -0.0015708 3.97498
21.735 0.108588 -0.00431207 -0.0015708 3.98422
21.74 0.1119 -0.00189226 -0.00188496 3.97791
21.745 0.150843 0.00298954 -0.00188496 3.98635
21.75 0.232752 0.0107226 -0.00188496 3.97947
21.755 0.286237 0.0101433 -0.00188496 3.98749
21.76 0.302525 0.00753445 -0.00188496 3.98029
21.765 0.342767 0.0114542 -0.0015708 3.98809
21.77 0.333808 0.00667453 -0.0015708 3.99102
21.775 0.337894 0.00860027 -0.0015708 3.98287
21.78 0.277752 0.000135503 -0.0015708 3.98996
21.785 0.239415 0.000995449 -0.0015708 3.99238
21.79 0.171391 -0.00494278 -0.00125664 3.99415
21.795 0.106305 -0.00732241 -0.00125664 3.98515
21.8 0.0441649 -0.00984741 -0.00125664 3.99162
21.805 0.0432417 -0.00371836 -0.0015708 3.98331
21.81 0.0657811 -0.000937768 -0.0015708 3.99028
21.815 0.102364 0.00168093 -0.0015708 3.99262
21.82 0.156802 0.00558836 -0.0015708 3.98403
21.825 0.229508 0.0103201 -0.0015708 3.98052
21.83 0.242668 0.00507492 -0.0015708 3.97797
21.835 0.301743 0.0117841 -0.00125664 3.98639
21.84 0.300069 0.00607733 -0.00125664 3.9795
21.845 0.30399 0.00666283 -0.000942478 3.98751
21.85 0.270549 0.00194117 -0.000942478 3.98031
21.855 0.254148 0.00312206 -0.000942478 3.9881
21.86 0.165519 -0.0074753 -0.000942478 3.98074
21.865 0.1756 0.00268227 -0.000942478 3.97813
21.87 0.166023 -8.52874e-05 -0.000628319 3.97622
21.875 0.235792 0.0106219 -0.000628319 3.97484
21.88 0.193396 -0.00223434 -0.000628319 3.98411
21.885 0.204519 0.00360623 -0.000628319 3.97784
21.89 0.25968 0.0101809 -0.000628319 3.9863
21.895 0.318394 0.0131907 -0.000628319 3.97943
21.9 0.355141 0.012755 -0.000628319 3.98746
21.905 0.365798 0.0110524 -0.000628319 3.98027
21.91 0.40437 0.0158342 -0.000628319 3.97779
21.915 0.363221 0.00671409 -0.000628319 3.97597
21.92 0.382164 0.013484 -0.000314159 3.98495
21.925 0.362972 0.00935959 -0.000314159 3.97844
21.93 0.37971 0.0136293 0 3.97645
21.935 0.281213 -0.00150565 0 3.975
21.94 0.239561 0.00260035 0 3.97395
21.945 0.158761 -0.00494783 0.000314159 3.98346
21.95 0.108824 -0.00409156 0.000314159 3.97736
21.955 0.0841638 -0.00291494 0.000314159 3.97567
21.96 0.0564702 -0.0047328 0.000314159 3.97443
21.965 0.103259 0.00418198 0.000314159 3.97353
21.97 0.143685 0.00452022 0.000628319 3.97287
21.975 0.164492 0.00326507 0.000628319 3.96211
21.98 0.21848 0.00858078 0.000628319 3.9673
21.985 0.260561 0.00874897 0.000942478 3.96834
21.99 0.261356 0.00473783 0.000942478 3.96909
21.995 0.315634 0.0124791 0.000942478 3.95935
22 0.28663 0.00273424 0.00125664 3.96529
22.005 0.250435 0.000676933 0.00125664 3.96687
22.01 0.20102 -0.00263242 0.00125664 3.96802
22.015 0.213557 0.0040488 0.00125664 3.95858
22.02 0.189437 -0.000731575 0.00125664 3.96473
22.025 0.196196 0.00253894 0.00125664 3.96646
22.03 0.199921 0.00228956 0.00125664 3.96772
22.035 0.176042 -0.00151582 0.00125664 3.95836
22.04 0.170934 0.000368992 0.000942478 3.95428
22.045 0.195951 0.00429001 0.000942478 3.95131
22.05 0.228376 0.00622825 0.000942478 3.95943
22.055 0.180966 -0.0037168 0.000942478 3.95232
22.06 0.205519 0.00436543 0.000942478 3.96017
22.065 0.177701 -0.00208359 0.000942478 3.96314
22.07 0.149202 -0.00345342 0.000942478 3.96531
22.075 0.115463 -0.00590234 0.00125664 3.9566
22.08 0.111184 -0.00342664 0.00125664 3.953
22.085 0.151219 0.00239693 0.00125664 3.95038
22.09 0.0997296 -0.00920897 0.00125664 3.95875
22.095 0.0672916 -0.00888023 0.00125664 3.95182
22.1 0.0756262 -0.00484581 0.00125664 3.94952
22.105 0.108874 -0.00133167 0.00125664 3.94784
22.11 0.134739 -0.00138809 0.00125664 3.95691
22.115 0.101782 -0.00880022 0.00125664 3.95048
22.12 0.101014 -0.00589826 0.00125664 3.94854
22.125 0.0779504 -0.0094026 0.00125664 3.94713
22.13 0.0997211 -0.00441463 0.00125664 3.95639
22.135 0.118227 -0.00378365 0.000942478 3.9501
22.14 0.180779 0.00287624 0.000942478 3.95855
22.145 0.173785 -0.00437534 0.000942478 3.95168
22.15 0.166313 -0.0049105 0.000942478 3.9597
22.155 0.157688 -0.0053863 0.000942478 3.95251
22.16 0.159521 -0.00440103 0.000942478 3.95002
22.165 0.174647 -0.00254927 0.000942478 3.94821
22.17 0.181422 -0.00327355 0.000942478 3.95718
22.175 0.157734 -0.00728419 0.000942478 3.95067
22.18 0.160555 -0.00471342 0.000942478 3.95897
22.185 0.1214 -0.0102049 0.000628319 3.95198
22.19 0.0969225 -0.0100333 0.000628319 3.95992
22.195 0.0685515 -0.0117562 0.000628319 3.95267
22.2 0.0502975 -0.0119381 0.000628319 3.96043
22.205 0.0510286 -0.00988089 0.000314159 3.95304
22.21 0.0853328 -0.0055918 0.000314159 3.9607
22.215 0.116648 -0.00472768 0.000314159 3.95324
22.22 0.132185 -0.00599939 0.000314159 3.96084
22.225 0.185394 0.000225435 0 3.96363
22.23 0.22926 0.00109288 0 3.96566
22.235 0.247389 -0.000531955 0 3.95685
22.24 0.237694 -0.00367013 0 3.96347
22.245 0.216412 -0.00511477 -0.000314159 3.95526
22.25 0.186973 -0.00715535 -0.000314159 3.96231
22.255 0.160532 -0.00784201 -0.000314159 3.95442
22.26 0.103099 -0.013485 -0.000314159 3.9617
22.265 0.108282 -0.00706943 -0.000314159 3.95397
22.27 0.104668 -0.00842774 -0.000314159 3.96137
22.275 0.0752794 -0.012316 -0.000314159 3.95373
22.28 0.0867991 -0.00812809 -0.000314159 3.96119
22.285 0.11377 -0.0055601 -0.000314159 3.9536
22.29 0.170598 -0.000533634 -0.000314159 3.96109
22.295 0.233909 0.00285859 -0.000314159 3.95352
22.3 0.297109 0.00545486 -0.000314159 3.96103
22.305 0.307831 0.00103315 -0.000314159 3.95348
22.31 0.332234 0.00364728 -0.000314159 3.961
22.315 0.25867 -0.00878956 -0.000314159 3.95345
22.32 0.218662 -0.00688291 -0.000314159 3.9507
22.325 0.200868 -0.00529146 -0.000314159 3.94869
22.33 0.100336 -0.0177979 -0.000314159 3.95752
22.335 0.0762884 -0.0112167 -0.000314159 3.95092
22.34 0.0611882 -0.0113402 -0.000314159 3.95914
22.345 0.0705276 -0.0087942 -0.000314159 3.96238
22.35 0.109913 -0.00445683 -0.000314159 3.96474
22.355 0.169459 -4.86091e-05 -0.000314159 3.95618
22.36 0.187155 -0.00369746 -0.000314159 3.96297
22.365 0.202878 -0.00311489 -0.000314159 3.95489
22.37 0.252766 0.00230833 -0.000314159 3.96203
22.375 0.288245 0.00225298 0 3.9542
22.38 0.299125 0.000385459 0 3.96153
22.385 0.286277 -0.00222023 0 3.96414
22.39 0.231919 -0.00836867 0 3.96603
22.395 0.238458 -0.00226662 0.000314159 3.96741
22.4 0.257072 -0.000186786 0.000314159 3.96842
22.405 0.284428 0.00196294 0.000314159 3.96915
22.41 0.287381 -0.000574247 0.000628319 3.97997
22.415 0.196031 -0.0134466 0.000628319 3.97482
22.42 0.23522 0.00114991 0.000628319 3.97381
22.425 0.231301 -0.0032442 0.000628319 3.97308
22.43 0.314968 0.0090026 0.000628319 3.97255
22.435 0.334351 0.0036505 0.000628319 3.97216
22.44 0.284522 -0.00497752 0.000628319 3.96159
22.445 0.298793 0.00217681 0.000628319 3.96692
22.45 0.329316 0.00529201 0.000628319 3.96806
22.455 0.346241 0.00454864 0.000942478 3.96889
22.46 0.343524 0.00279562 0.000942478 3.96949
22.465 0.289912 -0.0041878 0.000942478 3.96993
22.47 0.222631 -0.00815178 0.000942478 3.98054
22.475 0.178771 -0.00759268 0.000942478 3.97523
22.48 0.109908 -0.0130497 0.000942478 3.96383
22.485 0.0901487 -0.00968404 0.00125664 3.96855
22.49 0.0754353 -0.0100613 0.00125664 3.95896
22.495 0.0920238 -0.00664125 0.00125664 3.95472
22.5 0.141567 -0.0016131 0.00125664 3.95163
22.505 0.158384 -0.00480126 0.0015708 3.94938
22.51 0.179867 -0.0036095 0.0015708 3.94774
22.515 0.175756 -0.00654403 0.0015708 3.95683
22.52 0.188972 -0.00427952 0.0015708 3.95043
22.525 0.256708 0.00381522 0.0015708 3.95879
22.53 0.222777 -0.00765223 0.0015708 3.95185
22.535 0.233871 -0.00266088 0.0015708 3.94954
22.54 0.231813 -0.00404645 0.0015708 3.94786
22.545 0.234668 -0.00304005 0.00125664 3.94663
22.55 0.207358 -0.00718536 0.00125664 3.94574
22.555 0.196548 -0.00599475 0.00125664 3.94509
22.56 0.214589 -0.00238885 0.00125664 3.94461
22.565 0.201992 -0.00597363 0.00125664 3.93398
22.57 0.206753 -0.00414054 0.00125664 3.93927
22.575 0.167065 -0.0103114 0.00125664 3.94038
22.58 0.189473 -0.00285153 0.000942478 3.94118
22.585 0.158166 -0.00967029 0.000942478 3.94177
22.59 0.155922 -0.00704116 0.000942478 3.95248
22.595 0.14841 -0.00794356 0.000942478 3.94726
22.6 0.0817251 -0.0168901 0.000942478 3.94619
22.605 0.0928499 -0.00889761 0.000942478 3.94542
22.61 0.0741732 -0.0129207 0.000942478 3.93457
22.615 0.106044 -0.0069467 0.000942478 3.9397
22.62 0.0892098 -0.0128289 0.000942478 3.94069
22.625 0.0765633 -0.0132338 0.000942478 3.94141
22.63 0.096264 -0.00959099 0.000942478 3.95222
22.635 0.0869162 -0.0130567 0.000942478 3.94706
22.64 0.130997 -0.00629496 0.000942478 3.95634
22.645 0.116187 -0.0128922 0.000942478 3.95007
22.65 0.10155 -0.0137313 0.000942478 3.94824
22.655 0.103594 -0.0122151 0.000942478 3.94691
22.66 0.075257 -0.0167089 0.000942478 3.94594
22.665 0.122077 -0.00711099 0.000628319 3.94524
22.67 0.145619 -0.00868099 0.000628319 3.94472
22.675 0.158708 -0.00931916 0.000628319 3.94435
22.68 0.163899 -0.00998894 0.000628319 3.94408
22.685 0.106597 -0.0187605 0.000628319 3.94388
22.69 0.0977437 -0.0144301 0.000628319 3.94373
22.695 0.0577424 -0.0191113 0.000314159 3.94363
22.7 0.0626226 -0.0146888 0.000314159 3.94355
22.705 0.0452992 -0.0179693 0.000314159 3.94349
22.71 0.00120971 -0.022491 0 3.94345
22.715 0.0187837 -0.0154502 -0.000314159 3.93314
22.72 0.0337913 -0.0156753 -0.000314159 3.93865
22.725 0.0283772 -0.0177795 -0.000628319 3.92964
22.73 0.0280654 -0.0178062 -0.000628319 3.93611
22.735 0.095655 -0.00804212 -0.000942478 3.93807
22.74 0.133534 -0.00965571 -0.000942478 3.9395
22.745 0.148111 -0.0116194 -0.000942478 3.95083
22.75 0.157207 -0.0112748 -0.00125664 3.94605
22.755 0.156925 -0.0123915 -0.00125664 3.95561
22.76 0.180194 -0.00887326 -0.00125664 3.94954
22.765 0.186623 -0.00991054 -0.0015708 3.94787
22.77 0.177928 -0.0117081 -0.0015708 3.94665
22.775 0.177737 -0.0107861 -0.0015708 3.94576
22.78 0.153642 -0.0137693 -0.00188496 3.94511
22.785 0.12954 -0.0148682 -0.00188496 3.95493
22.79 0.126489 -0.0127587 -0.00188496 3.94904
22.795 0.107481 -0.0150088 -0.00219911 3.95779
22.8 0.0683878 -0.0188062 -0.00219911 3.9717
22.805 0.0728629 -0.014293 -0.00219911 3.96881
22.81 0.0800804 -0.0135823 -0.00251327 3.96944
22.815 0.120529 -0.00875778 -0.00251327 3.9699
22.82 0.214891 0.000456616 -0.00251327 3.97024
22.825 0.265642 -0.00147526 -0.00251327 3.9602
22.83 0.318908 0.00126762 -0.00251327 3.95563
22.835 0.347858 0.000343016 -0.00251327 3.96259
22.84 0.313173 -0.00683872 -0.00251327 3.95463
22.845 0.306122 -0.00404066 -0.00251327 3.96186
22.85 0.248368 -0.0110125 -0.00251327 3.95409
22.855 0.189527 -0.0137778 -0.00219911 3.96145
22.86 0.125554 -0.0168851 -0.00219911 3.97436
22.865 0.05518 -0.0203738 -0.00219911 3.97073
22.87 0.0358776 -0.0164848 -0.00219911 3.98112
22.875 0.0304899 -0.0154737 -0.00219911 3.97566
22.88 0.0646576 -0.0104947 -0.00219911 3.97443
22.885 0.0937976 -0.0100379 -0.00219911 3.97353
22.89 0.164084 -0.00302635 -0.00219911 3.96259
22.895 0.151449 -0.0118953 -0.00219911 3.95736
22.9 0.193019 -0.00486702 -0.00219911 3.96384
22.905 0.223606 -0.00457328 -0.00219911 3.96582
22.91 0.245319 -0.00438916 -0.00219911 3.96725
22.915 0.211886 -0.0110504 -0.00219911 3.9683
22.92 0.172944 -0.0131437 -0.00219911 3.97935
22.925 0.131206 -0.0149616 -0.00219911 3.97437
22.93 0.0870515 -0.0171205 -0.00219911 3.97348
22.935 0.145944 -0.00459392 -0.00219911 3.97284
22.94 0.17657 -0.00618998 -0.00219911 3.97237
22.945 0.185664 -0.00803883 -0.00219911 3.98232
22.95 0.141618 -0.0149195 -0.00219911 3.97653
22.955 0.178677 -0.00538287 -0.00219911 3.97506
22.96 0.215397 -0.00385496 -0.00219911 3.97399
22.965 0.245223 -0.00316999 -0.00219911 3.97321
22.97 0.249039 -0.00538799 -0.00219911 3.97264
22.975 0.260326 -0.00383697 -0.00219911 3.96194
22.98 0.283655 -0.00154955 -0.00219911 3.96718
22.985 0.351898 0.0059544 -0.00219911 3.97853
22.99 0.32909 -0.00345939 -0.00219911 3.97377
22.995 0.310768 -0.00337069 -0.00219911 3.97305
23 0.256635 -0.00881136 -0.00219911 3.97252
23.005 0.231467 -0.00710853 -0.00188496 3.97214
23.01 0.193227 -0.00984938 -0.00188496 3.97186
23.015 0.110358 -0.0176332 -0.00188496 3.96137
23.02 0.0840298 -0.0133389 -0.00188496 3.96676
23.025 0.0291235 -0.0182228 -0.00219911 3.95766
23.03 0.0540828 -0.00969541 -0.00219911 3.96406
23.035 0.0811429 -0.00887441 -0.00188496 3.95569
23.04 0.0937947 -0.0100821 -0.00188496 3.95234
23.045 0.140625 -0.00489711 -0.00188496 3.94989
23.05 0.188197 -0.00293304 -0.00188496 3.94812
23.055 0.193452 -0.00694892 -0.00188496 3.94682
23.06 0.253186 0.00109845 -0.00188496 3.94588
23.065 0.262387 -0.00342382 -0.00188496 3.94519
23.07 0.276944 -0.00214852 -0.00188496 3.95497
23.075 0.21464 -0.0120941 -0.00188496 3.94907
23.08 0.223365 -0.00447109 -0.00188496 3.94751
23.085 0.220617 -0.00562208 -0.00188496 3.94638
23.09 0.167587 -0.0127904 -0.00188496 3.94556
23.095 0.116002 -0.0147991 -0.00188496 3.94496
23.1 0.111488 -0.0103738 -0.00188496 3.94452
23.105 0.116329 -0.00902713 -0.00219911 3.9442
23.11 0.10295 -0.0116814 -0.00219911 3.95425
23.115 0.170589 -0.000722457 -0.00219911 3.94854
23.12 0.148935 -0.0107882 -0.00219911 3.95742
23.125 0.160777 -0.00683201 -0.00219911 3.95085
23.13 0.191312 -0.0038762 -0.00219911 3.9591
23.135 0.178561 -0.00856176 -0.00219911 3.95208
23.14 0.195382 -0.00501735 -0.00219911 3.95999
23.145 0.148119 -0.0133033 -0.00219911 3.96301
23.15 0.190983 -0.00293028 -0.00188496 3.96521
23.155 0.124695 -0.0164827 -0.00188496 3.95653
23.16 0.0607089 -0.0191438 -0.00188496 3.96323
23.165 0.0350709 -0.0164911 -0.00188496 3.95509
23.17 -0.00328347 -0.0198718 -0.00188496 3.96219
23.175 0.00423038 -0.0152189 -0.00188496 3.95432
23.18 -0.0217987 -0.0202798 -0.00188496 3.96163
23.185 0.018756 -0.0121917 -0.00188496 3.95392
23.19 0.0374308 -0.0136804 -0.00219911 3.95105
23.195 0.0662338 -0.0117776 -0.00219911 3.94896
23.2 0.104171 -0.00968683 -0.00219911 3.95772
23.205 0.12529 -0.0104387 -0.00219911 3.95107
23.21 0.165488 -0.00712764 -0.00219911 3.95926
23.215 0.146002 -0.0137271 -0.00219911 3.95219
23.22 0.119668 -0.0156844 -0.00219911 3.96007
23.225 0.0983021 -0.0156074 -0.00251327 3.95278
23.23 0.0805631 -0.0161469 -0.00251327 3.95022
23.235 0.0679748 -0.0163215 -0.00251327 3.94835
23.24 0.0186745 -0.0221524 -0.00251327 3.93671
23.245 0.0287237 -0.0162337 -0.00251327 3.94126
23.25 0.00754291 -0.0201603 -0.00282743 3.94182
23.255 -0.00123125 -0.019601 -0.00282743 3.94224
23.26 0.00377324 -0.0183511 -0.00282743 3.94254
23.265 -0.011191 -0.0209644 -0.00314159 3.94276
23.27 0.0256616 -0.0145476 -0.00314159 3.94292
23.275 0.0709014 -0.0117222 -0.00345575 3.94303
23.28 0.105974 -0.0114362 -0.00345575 3.94312
23.285 0.147662 -0.00908068 -0.00345575 3.94318
23.29 0.164416 -0.0104789 -0.00376991 3.94322
23.295 0.171006 -0.0111154 -0.00376991 3.94326
23.3 0.18 -0.0103624 -0.00376991 3.94328
23.305 0.161189 -0.0132935 -0.00408407 3.93301
23.31 0.120797 -0.0172321 -0.00408407 3.93857
23.315 0.0752024 -0.0190934 -0.00439823 3.92958
23.32 0.0619006 -0.0166528 -0.00439823 3.93606
23.325 0.00970542 -0.0224845 -0.00471239 3.93804
23.33 -0.00674811 -0.0197885 -0.00471239 3.93948
23.335 -0.00967854 -0.0184668 -0.00502655 3.94053
23.34 -0.00996155 -0.0181363 -0.00534071 3.94129
23.345 0.00699157 -0.0159681 -0.00534071 3.94185
23.35 0.0635763 -0.00947516 -0.00565487 3.94226
23.355 0.151193 -0.00278257 -0.00565487 3.94255
23.36 0.233539 0.000238131 -0.00565487 3.94277
23.365 0.273175 -0.00209065 -0.00565487 3.94292
23.37 0.300024 -0.00181373 -0.00565487 3.94304
23.375 0.339111 0.00156991 -0.00565487 3.94312
23.38 0.308405 -0.00626966 -0.00565487 3.95347
23.385 0.22082 -0.0149509 -0.00565487 3.94797
23.39 0.189204 -0.0103328 -0.00565487 3.94672
23.395 0.0990885 -0.0198611 -0.00565487 3.95609
23.4 0.0730763 -0.0144595 -0.00565487 3.96017
23.405 -0.0219454 -0.0252887 -0.00565487 3.95285
23.41 -0.00600445 -0.013628 -0.00596903 3.96056
23.415 0.0326273 -0.0099968 -0.00596903 3.96342
23.42 0.0356292 -0.0136288 -0.00596903 3.96551
23.425 0.0828524 -0.00722777 -0.00596903 3.95675
23.43 0.16176 -0.00108121 -0.00596903 3.96339
23.435 0.220171 -0.000340798 -0.00596903 3.9552
23.44 0.249547 -0.00195067 -0.00596903 3.96227
23.445 0.263423 -0.00236401 -0.00596903 3.95438
23.45 0.245116 -0.00648662 -0.00565487 3.96167
23.455 0.217498 -0.00804384 -0.00565487 3.95395
23.46 0.245226 -0.00122929 -0.00565487 3.96136
23.465 0.189 -0.0114901 -0.00565487 3.95372
23.47 0.146904 -0.0117599 -0.00565487 3.96119
23.475 0.129026 -0.0101782 -0.00534071 3.9536
23.48 0.0706886 -0.0167985 -0.00534071 3.9611
23.485 0.0568385 -0.012838 -0.00534071 3.95353
23.49 0.0977713 -0.00582283 -0.00534071 3.95077
23.495 0.1275 -0.00577952 -0.00534071 3.94875
23.5 0.175842 -0.00167779 -0.00565487 3.95757
23.505 0.154368 -0.00925648 -0.00565487 3.95096
23.51 0.190216 -0.00191862 -0.00565487 3.94889
23.515 0.266361 0.00549763 -0.00565487 3.94739
23.52 0.357614 0.0110074 -0.00565487 3.95657
23.525 0.327853 -0.00201986 -0.00534071 3.95024
23.53 0.323344 0.000737863 -0.00534071 3.95865
23.535 0.300969 -0.00134763 -0.00534071 3.95175
23.54 0.285803 -0.00130295 -0.00502655 3.95975
23.545 0.244305 -0.00515573 -0.00502655 3.95255
23.55 0.126212 -0.0175676 -0.00502655 3.96034
23.555 0.039919 -0.017848 -0.00502655 3.95298
23.56 -0.0306514 -0.0194802 -0.00502655 3.95036
23.565 -0.0229717 -0.0116969 -0.00502655 3.94846
23.57 -0.0303169 -0.0140834 -0.00502655 3.95735
23.575 -0.0328784 -0.0139323 -0.00502655 3.9508
23.58 0.0589422 -0.00128681 -0.00502655 3.95906
23.585 0.113578 -0.00273401 -0.00502655 3.95205
23.59 0.159466 -0.00197074 -0.00502655 3.95997
23.595 0.302997 0.0140866 -0.00502655 3.95271
23.6 0.321787 0.00218675 -0.00471239 3.96045
23.605 0.319838 0.000658575 -0.00471239 3.95306
23.61 0.306511 -0.000693164 -0.00471239 3.96071
23.615 0.276275 -0.00307602 -0.00471239 3.95325
23.62 0.295963 0.00297703 -0.00471239 3.96084
23.625 0.23349 -0.00734871 -0.00471239 3.95335
23.63 0.161302 -0.0111813 -0.00471239 3.96092
23.635 0.130572 -0.00810733 -0.00471239 3.9534
23.64 0.0741195 -0.0131188 -0.00471239 3.95067
23.645 0.0760685 -0.00732681 -0.00471239 3.94868
23.65 0.0689008 -0.0088568 -0.00471239 3.95752
23.655 -0.00156382 -0.0179017 -0.00502655 3.96121
23.66 0.067112 -0.00128427 -0.00502655 3.95361
23.665 0.108257 -0.00259582 -0.00502655 3.95082
23.67 0.154616 -0.000393324 -0.00502655 3.95908
23.675 0.18518 -0.000488833 -0.00502655 3.95206
23.68 0.137206 -0.0104143 -0.00502655 3.95998
23.685 0.208301 0.00431985 -0.00471239 3.95272
23.69 0.133994 -0.0133762 -0.00471239 3.96046
23.695 0.060517 -0.0161982 -0.00471239 3.95306
23.7 0.0156004 -0.0154198 -0.00471239 3.95043
23.705 -0.017754 -0.0159517 -0.00471239 3.9485
23.71 -0.00889477 -0.0117178 -0.00471239 3.9471
23.715 -0.0671621 -0.0211645 -0.00471239 3.9358
23.72 -0.00192389 -0.00665189 -0.00471239 3.94059
23.725 -0.0127685 -0.0151111 -0.00471239 3.94134
23.73 0.0429079 -0.00641749 -0.00471239 3.94188
23.735 0.117042 -0.00153441 -0.00502655 3.95257
23.74 0.112286 -0.00948724 -0.00502655 3.94732
23.745 0.110226 -0.00936003 -0.00502655 3.94624
23.75 0.111593 -0.00897725 -0.00502655 3.94545
23.755 0.119997 -0.00756656 -0.00534071 3.94488
23.76 0.0412662 -0.0196359 -0.00534071 3.94446
23.765 0.0322663 -0.0129632 -0.00534071 3.93387
23.77 0.0243193 -0.0132522 -0.00565487 3.93919
23.775 -0.00520369 -0.0166744 -0.00565487 3.93003
23.78 -0.00580096 -0.0142713 -0.00565487 3.93639
23.785 0.0456979 -0.00649691 -0.00596903 3.92799
23.79 0.0110982 -0.0170958 -0.00596903 3.93491
23.795 -0.0174984 -0.0174726 -0.00628319 3.9372
23.8 0.00445381 -0.011347 -0.00659734 3.93887
23.805 0.0255822 -0.0109787 -0.00659734 3.95037
23.81 0.0505595 -0.00966469 -0.00659734 3.956
23.815 0.0601234 -0.0103576 -0.0069115 3.94982
23.82 0.0659598 -0.010605 -0.0069115 3.94806
23.825 0.0714352 -0.0100905 -0.00722566 3.94678
23.83 0.100671 -0.00649582 -0.00722566 3.94585
23.835 0.138965 -0.00357118 -0.00753982 3.94517
23.84 0.197298 0.00103401 -0.00753982 3.94467
23.845 0.137593 -0.0130812 -0.00753982 3.94431
23.85 0.0497125 -0.0191597 -0.00785398 3.95433
23.855 0.0651083 -0.00794054 -0.00785398 3.9486
23.86 0.0626516 -0.00973775 -0.00816814 3.95746
23.865 0.0181617 -0.0156066 -0.00816814 3.95088
23.87 0.0337407 -0.00908137 -0.00816814 3.94884
23.875 0.0327233 -0.0105301 -0.0084823 3.94734
23.88 0.0617308 -0.00658552 -0.0084823 3.95654
23.885 0.130103 0.000827713 -0.00879646 3.95021
23.89 0.19438 0.00319367 -0.00879646 3.94835
23.895 0.176855 -0.00546548 -0.00879646 3.94699
23.9 0.23666 0.00512852 -0.00879646 3.946
23.905 0.173503 -0.00949188 -0.00879646 3.94528
23.91 0.163434 -0.0042527 -0.00879646 3.94475
23.915 0.181765 -0.000372349 -0.00879646 3.94437
23.92 0.163701 -0.00466796 -0.00879646 3.95438
23.925 0.117214 -0.00901993 -0.00879646 3.94864
23.93 0.0567136 -0.0129959 -0.00879646 3.95748
23.935 -0.00408211 -0.0153761 -0.00879646 3.9509
23.94 -0.00433069 -0.0096993 -0.00879646 3.95913
23.945 0.0226606 -0.00579264 -0.00879646 3.9521
23.95 0.0464758 -0.00530665 -0.00879646 3.94972
23.955 0.112069 0.00157002 -0.00879646 3.94799
23.96 0.18249 0.00486965 -0.00879646 3.95702
23.965 0.154121 -0.00588807 -0.00879646 3.96084
23.97 0.191292 0.00263068 -0.00879646 3.95335
23.975 0.21102 0.0015854 -0.0084823 3.95063
23.98 0.226181 0.00210408 -0.0084823 3.94865
23.985 0.179721 -0.00577857 -0.0084823 3.9575
23.99 0.119921 -0.009523 -0.00816814 3.95091
23.995 0.119445 -0.00349253 -0.00816814 3.94885
24 0.0973256 -0.00650288 -0.00816814 3.94736
24.005 0.142399 0.0020114 -0.00816814 3.95655
24.01 0.160189 0.000356704 -0.00816814 3.95022
24.015 0.0944324 -0.0106523 -0.00816814 3.94835
24.02 0.0718482 -0.00682471 -0.0084823 3.94699
24.025 0.0632741 -0.0057872 -0.0084823 3.946
24.03 0.150538 0.00747779 -0.0084823 3.94528
24.035 0.205433 0.00664509 -0.0084823 3.94476
24.04 0.195032 -8.09424e-05 -0.0084823 3.94437
24.045 0.218583 0.0044718 -0.0084823 3.95438
24.05 0.239473 0.00559741 -0.0084823 3.94864
24.055 0.311467 0.0141015 -0.0084823 3.9472
24.06 0.272086 0.0014095 -0.00816814 3.94615
24.065 0.256394 0.00351185 -0.00816814 3.95568
24.07 0.215073 -0.000590826 -0.00785398 3.94958
24.075 0.234664 0.00650187 -0.00785398 3.95817
24.08 0.201623 -4.47217e-05 -0.00753982 3.9514
24.085 0.154039 -0.00327432 -0.00753982 3.94921
24.09 0.0908359 -0.00735342 -0.00753982 3.94762
24.095 0.0223866 -0.0107653 -0.00753982 3.94646
24.1 0.0461646 -0.000672098 -0.00753982 3.94561
24.105 0.0417027 -0.00388168 -0.00753982 3.945
24.11 0.051869 -0.00215074 -0.00753982 3.94455
24.115 0.0407622 -0.00504341 -0.00753982 3.95451
24.12 0.0929017 0.00352797 -0.00753982 3.94873
24.125 0.150069 0.00652033 -0.00785398 3.95755
24.13 0.210323 0.00927731 -0.00753982 3.95095
24.135 0.240272 0.00754787 -0.00753982 3.95917
24.14 0.213118 0.00118314 -0.00753982 3.95212
24.145 0.241665 0.00809272 -0.00753982 3.96003
24.15 0.258985 0.00818402 -0.00753982 3.95275
24.155 0.266207 0.00769944 -0.00753982 3.96048
24.16 0.213976 -0.000277885 -0.00722566 3.95308
24.165 0.157403 -0.00283555 -0.00722566 3.95044
24.17 0.101862 -0.00492773 -0.00722566 3.94851
24.175 0.100821 0.000496784 -0.00722566 3.94711
24.18 0.114845 0.00241575 -0.00722566 3.95637
24.185 0.0962106 -0.0011225 -0.00753982 3.95009
24.19 0.0567681 -0.00504854 -0.00753982 3.95854
24.195 0.0904389 0.00357866 -0.00753982 3.96196
24.2 0.104221 0.00208975 -0.00753982 3.96444
24.205 0.0801032 -0.00272166 -0.00753982 3.96625
24.21 0.124481 0.00604592 -0.00753982 3.95729
24.215 0.115623 0.000179333 -0.00753982 3.96379
24.22 0.166599 0.00812165 -0.00722566 3.95549
24.225 0.105172 -0.00574796 -0.00722566 3.96248
24.23 0.106889 0.000812705 -0.00722566 3.95454
24.235 0.108063 0.000609432 -0.00722566 3.96179
24.24 0.0673411 -0.00550123 -0.0069115 3.95403
24.245 0.095104 0.00223003 -0.0069115 3.96142
24.25 0.0253468 -0.010342 -0.0069115 3.95376
24.255 0.0305558 -0.00261611 -0.00722566 3.96122
24.26 -0.02013 -0.010471 -0.00722566 3.96391
24.265 0.0198171 -6.90393e-05 -0.00722566 3.96586
24.27 0.0748454 0.0034792 -0.00722566 3.96729
24.275 0.0825538 -0.00101964 -0.00722566 3.96833
24.28 0.123923 0.00382536 -0.00722566 3.97937
24.285 0.0871287 -0.00485855 -0.00753982 3.97438
24.29 0.119902 0.00336058 -0.00753982 3.97349
24.295 0.100995 -0.00252458 -0.00753982 3.97285
24.3 0.149903 0.00626446 -0.00753982 3.97238
24.305 0.10251 -0.00517355 -0.00753982 3.97203
24.31 0.0982929 -0.0010227 -0.00753982 3.97178
24.315 0.0536039 -0.00690583 -0.00753982 3.9716
24.32 0.0418971 -0.00420646 -0.00753982 3.97147
24.325 0.0284339 -0.0050801 -0.00753982 3.97137
24.33 -0.00948089 -0.00925862 -0.00753982 3.9713
24.335 -0.0109506 -0.00557511 -0.00785398 3.97125
24.34 0.00953797 -0.00280067 -0.00785398 3.97121
24.345 0.0551302 0.00137773 -0.00785398 3.97119
24.35 0.0656591 -0.00140582 -0.00816814 3.97117
24.355 0.104112 0.00292199 -0.00816814 3.97115
24.36 0.105374 -0.000686793 -0.00816814 3.97114
24.365 0.154861 0.00604732 -0.00816814 3.98142
24.37 0.120267 -0.00335875 -0.00816814 3.97588
24.375 0.0734867 -0.00594716 -0.0084823 3.9643
24.38 0.0601452 -0.00335233 -0.0084823 3.96889
24.385 0.0440031 -0.00392955 -0.00879646 3.9695
24.39 0.0622674 0.000181352 -0.00879646 3.96994
24.395 0.0619999 -0.00155765 -0.00879646 3.95997
24.4 0.0682369 -0.000891455 -0.00879646 3.96574
24.405 0.0390639 -0.00560559 -0.00879646 3.9672
24.41 0.0493074 -0.000952745 -0.00911062 3.96826
24.415 0.0593049 -0.000617776 -0.00911062 3.96904
24.42 0.146769 0.010704 -0.00911062 3.9696
24.425 0.168289 0.00519414 -0.00911062 3.97001
24.43 0.223 0.0110209 -0.00911062 3.97031
24.435 0.225677 0.0060937 -0.00879646 3.96024
24.44 0.215065 0.00454052 -0.00879646 3.96594
24.445 0.187779 0.00214561 -0.00879646 3.96735
24.45 0.167612 0.00231447 -0.00879646 3.96837
24.455 0.127644 -0.00108159 -0.00879646 3.96911
24.46 0.0791162 -0.00370034 -0.00879646 3.95937
24.465 0.0278312 -0.00626309 -0.00879646 3.96531
24.47 -0.0348688 -0.0098177 -0.00911062 3.97717
24.475 -0.0394358 -0.00429644 -0.00911062 3.97278
24.48 0.0107156 0.00344851 -0.00942478 3.96204
24.485 0.0879261 0.00894803 -0.00942478 3.96725
24.49 0.225866 0.0201888 -0.00911062 3.97859
24.495 0.259249 0.0117422 -0.00911062 3.97381
24.5 0.235378 0.00523171 -0.00879646 3.96279
24.505 0.218504 0.00549378 -0.00879646 3.9678
24.51 0.252297 0.0121246 -0.0084823 3.95841
24.515 0.268814 0.0113355 -0.0084823 3.96461
24.52 0.226839 0.00433411 -0.0084823 3.95609
24.525 0.112239 -0.0074481 -0.0084823 3.96291
24.53 0.0557392 -0.00431489 -0.00816814 3.97543
24.535 0.0766184 0.00433492 -0.00816814 3.97151
24.54 0.10417 0.00604694 -0.00816814 3.9714
24.545 0.113534 0.00463885 -0.00816814 3.97132
24.55 0.0499041 -0.00522143 -0.00816814 3.97127
24.555 0.0930455 0.00711207 -0.00816814 3.97123
24.56 0.1361 0.0090262 -0.00816814 3.96091
24.565 0.246087 0.0203788 -0.00816814 3.95614
24.57 0.303089 0.0177878 -0.00816814 3.95267
24.575 0.33741 0.0173369 -0.00816814 3.96042
24.58 0.34659 0.015929 -0.00816814 3.95304
24.585 0.359379 0.0170648 -0.00785398 3.95041
24.59 0.357709 0.0161068 -0.00785398 3.95877
24.595 0.344836 0.0147394 -0.00753982 3.96212
24.6 0.26428 0.00485337 -0.00722566 3.96455
24.605 0.168186 -0.000288852 -0.00722566 3.96633
24.61 0.0962137 -0.000720881 -0.00722566 3.96762
24.615 0.024511 -0.00409212 -0.0069115 3.96856
24.62 -0.0155631 -0.0027616 -0.0069115 3.95896
24.625 -0.0371441 -0.00220784 -0.0069115 3.95471
24.63 -0.0100743 0.00338861 -0.0069115 3.95162
24.635 0.0139283 0.00335155 -0.00659734 3.94936
24.64 0.0989904 0.0127533 -0.00659734 3.94772
24.645 0.199067 0.0183455 -0.00659734 3.94652
24.65 0.217654 0.0105855 -0.00628319 3.95594
24.655 0.275005 0.0171114 -0.00628319 3.96005
24.66 0.30692 0.016355 -0.00628319 3.95276
24.665 0.306841 0.0134834 -0.00628319 3.96048
24.67 0.256315 0.00686102 -0.00628319 3.95307
24.675 0.231756 0.00870087 -0.00628319 3.96071
24.68 0.202251 0.00732635 -0.00628319 3.95324
24.685 0.195554 0.00949515 -0.00628319 3.95054
24.69 0.162642 0.00556943 -0.00628319 3.95887
24.695 0.138645 0.00519812 -0.00596903 3.96219
24.7 0.0914329 0.00129108 -0.00628319 3.96462
24.705 0.108529 0.00842493 -0.00628319 3.95609
24.71 0.102119 0.00558811 -0.00628319 3.96292
24.715 0.14553 0.0121858 -0.00628319 3.97543
24.72 0.173783 0.0119896 -0.00628319 3.97151
24.725 0.185189 0.0108411 -0.00628319 3.9714
24.73 0.191105 0.0106582 -0.00628319 3.97132
24.735 0.134133 0.00174495 -0.00596903 3.98155
24.74 0.153128 0.0101832 -0.00596903 3.97597
24.745 0.0814146 -0.0018122 -0.00596903 3.97465
24.75 0.0744946 0.00384275 -0.00565487 3.97369
24.755 0.0992202 0.00771987 -0.00565487 3.98328
24.76 -0.000191838 -0.0086999 -0.00565487 3.97723
24.765 0.0764319 0.0116018 -0.00565487 3.97557
24.77 0.0271386 -0.00315264 -0.00565487 3.97436
24.775 0.086505 0.00984689 -0.00565487 3.97348
24.78 0.0927084 0.00466253 -0.00565487 3.97284
24.785 0.0948862 0.00435039 -0.00565487 3.96208
24.79 0.100389 0.00477495 -0.00565487 3.95699
24.795 0.0752939 0.000566036 -0.00565487 3.95329
24.8 0.151385 0.013616 -0.00565487 3.96087
24.805 0.132464 0.0034728 -0.00565487 3.95337
24.81 0.172812 0.011096 -0.00565487 3.95065
24.815 0.163054 0.00564092 -0.00565487 3.95895
24.82 0.137852 0.00316651 -0.00565487 3.96225
24.825 0.109063 0.00164219 -0.00565487 3.96466
24.83 0.109117 0.00458709 -0.00565487 3.95613
24.835 0.065441 -0.00171958 -0.00565487 3.95265
24.84 0.0421733 -0.000792309 -0.00565487 3.95013
24.845 0.0408114 0.00150494 -0.00596903 3.94829
24.85 0.0301697 -9.45098e-05 -0.00596903 3.94694
24.855 0.0541691 0.00416073 -0.00596903 3.94597
24.86 0.0778635 0.0051647 -0.00628319 3.95554
24.865 0.0843255 0.00375206 -0.00628319 3.94948
24.87 0.11913 0.00779669 -0.00628319 3.9581
24.875 0.15458 0.00936145 -0.00628319 3.96163
24.88 0.165777 0.00748786 -0.00628319 3.96421
24.885 0.147703 0.00403685 -0.00628319 3.9558
24.89 0.158048 0.007262 -0.00628319 3.9627
24.895 0.161 0.00688986 -0.00628319 3.9547
24.9 0.167815 0.007531 -0.00628319 3.9619
24.905 0.154143 0.0051697 -0.00628319 3.95412
24.91 0.129405 0.00309124 -0.00628319 3.95119
24.915 0.126052 0.00550666 -0.00659734 3.94906
24.92 0.148167 0.00902057 -0.00659734 3.94751
24.925 0.111629 0.00165553 -0.00659734 3.94638
24.93 0.0746924 -1.08486e-05 -0.00659734 3.95584
24.935 0.0226271 -0.00365917 -0.00659734 3.9497
24.94 0.0608607 0.00699802 -0.0069115 3.95826
24.945 0.0996799 0.00870148 -0.0069115 3.95146
24.95 0.158208 0.013048 -0.0069115 3.94926
24.955 0.220639 0.0162939 -0.0069115 3.93737
24.96 0.269112 0.016648 -0.00659734 3.94174
24.965 0.31201 0.0182827 -0.00659734 3.94217
24.97 0.310212 0.0138942 -0.00628319 3.9322
24.975 0.324289 0.0165678 -0.00628319 3.92769
24.98 0.30263 0.0124713 -0.00628319 3.93469
24.985 0.242577 0.00618813 -0.00596903 3.93704
24.99 0.175738 0.00302161 -0.00596903 3.93875
24.995 0.109594 0.000509228 -0.00596903 3.92971
25 0.0737786 0.00195421 -0.00596903 3.93616
25.005 0.0439676 0.00128032 -0.00596903 3.92782
25.01 0.0445825 0.00404694 -0.00596903 3.93478
25.015 0.0798865 0.00859903 -0.00565487 3.92682
25.02 0.106176 0.0084768 -0.00565487 3.93405
25.025 0.144056 0.0113006 -0.00565487 3.92629
25.03 0.158643 0.00952152 -0.00565487 3.92338
25.035 0.178426 0.0105786 -0.00534071 3.92126
25.04 0.242871 0.0179484 -0.00534071 3.91972
25.045 0.264493 0.0142731 -0.00502655 3.92888
25.05 0.252347 0.0106665 -0.00502655 3.93281
25.055 0.185595 0.00263244 -0.00502655 3.93567
25.06 0.176708 0.00833424 -0.00502655 3.92747
25.065 0.158767 0.00665582 -0.00502655 3.93452
25.07 0.189106 0.0125146 -0.00471239 3.93693
25.075 0.209985 0.0125187 -0.00471239 3.93868
25.08 0.133944 -0.000292306 -0.00471239 3.92967
25.085 0.161863 0.0114303 -0.00471239 3.92585
25.09 0.190929 0.0126917 -0.00471239 3.93335
25.095 0.225702 0.0149271 -0.00471239 3.92579
25.1 0.294262 0.0214089 -0.00471239 3.92302
25.105 0.23704 0.00614179 -0.00439823 3.92101
25.11 0.283297 0.0188911 -0.00439823 3.91954
25.115 0.303164 0.0173306 -0.00439823 3.91847
25.12 0.375699 0.0261251 -0.00439823 3.91769
25.125 0.350677 0.0148695 -0.00376991 3.92741
25.13 0.361876 0.0195413 -0.00376991 3.92146
25.135 0.299254 0.00948193 -0.00345575 3.91987
25.14 0.284717 0.0137605 -0.00314159 3.91871
25.145 0.22725 0.00722137 -0.00314159 3.91787
25.15 0.145647 0.00109315 -0.00282743 3.91725
25.155 0.133389 0.00723258 -0.00251327 3.91681
25.16 0.0730423 -0.000360423 -0.00251327 3.90619
25.165 0.120164 0.011951 -0.00219911 3.91149
25.17 0.12498 0.00731602 -0.00188496 3.90231
25.175 0.141168 0.00890948 -0.00188496 3.90866
25.18 0.171901 0.0112053 -0.0015708 3.91054
25.185 0.14929 0.00473829 -0.0015708 3.90162
25.19 0.216208 0.0165933 -0.0015708 3.90815
25.195 0.238458 0.0126144 -0.00125664 3.91017
25.2 0.245466 0.0114392 -0.00125664 3.91164
25.205 0.293564 0.0174296 -0.000942478 3.9127
25.21 0.249742 0.00637741 -0.000942478 3.91348
25.215 0.246799 0.0105835 -0.000942478 3.91405
25.22 0.200348 0.00428271 -0.000942478 3.90418
25.225 0.160336 0.00324546 -0.000942478 3.91002
25.23 0.139132 0.00419744 -0.000942478 3.91153
25.235 0.0672719 -0.0041808 -0.000942478 3.90234
25.24 0.0758553 0.00408261 -0.000942478 3.90868
25.245 0.0584027 0.000406726 -0.000942478 3.90026
25.25 0.153152 0.0154963 -0.000942478 3.90717
25.255 0.153301 0.00563315 -0.000942478 3.90945
25.26 0.137218 0.00317549 -0.000942478 3.91111
25.265 0.208764 0.0150225 -0.000942478 3.91232
25.27 0.145289 -0.00148962 -0.000942478 3.90292
25.275 0.160817 0.0071339 -0.000942478 3.9091
25.28 0.142704 0.00242931 -0.000628319 3.92115
25.285 0.14129 0.0040098 -0.000628319 3.91689
25.29 0.167404 0.00775789 -0.000628319 3.91653
25.295 0.0873665 -0.00656129 -0.000628319 3.91627
25.3 0.131019 0.0076863 -0.000628319 3.91608
25.305 0.111897 -4.45399e-05 -0.000314159 3.90566
25.31 0.115194 0.00210212 -0.000314159 3.9111
25.315 0.128852 0.00347042 -0.000314159 3.9226
25.32 0.0801214 -0.00504479 -0.000314159 3.91794
25.325 0.08047 5.948e-05 -0.000628319 3.9173
25.33 0.0796433 -0.000455694 -0.000628319 3.92712
25.335 0.112069 0.00411586 -0.000628319 3.92124
25.34 0.124559 0.00228793 -0.000628319 3.92999
25.345 0.169103 0.00735766 -0.000628319 3.92333
25.35 0.159023 0.00121399 -0.000628319 3.93151
25.355 0.161067 0.00255391 -0.000628319 3.92443
25.36 0.163691 0.00256905 -0.000628319 3.93232
25.365 0.130713 -0.00245843 -0.000628319 3.93531
25.37 0.159416 0.00486291 -0.000628319 3.93749
25.375 0.0744339 -0.010257 -0.000628319 3.92879
25.38 0.111441 0.00381194 -0.000942478 3.9252
25.385 0.0433789 -0.00999138 -0.000942478 3.93288
25.39 0.0427725 -0.00347009 -0.000942478 3.93572
25.395 0.0358445 -0.00474838 -0.000942478 3.93779
25.4 -0.0260075 -0.0132484 -0.000942478 3.9393
25.405 0.0135331 -0.00146391 -0.00125664 3.9404
25.41 0.00104153 -0.00756926 -0.00125664 3.93091
25.415 0.0525913 0.00102065 -0.0015708 3.92675
25.42 0.104748 0.00283676 -0.0015708 3.934
25.425 0.163351 0.00593822 -0.0015708 3.92625
25.43 0.179848 0.00220398 -0.0015708 3.93364
25.435 0.235398 0.00868082 -0.0015708 3.92599
25.44 0.290622 0.0110106 -0.0015708 3.93345
25.445 0.264506 0.00205869 -0.0015708 3.92585
25.45 0.240983 0.00154717 -0.0015708 3.93334
25.455 0.183892 -0.0036093 -0.00188496 3.92577
25.46 0.132672 -0.00513959 -0.00188496 3.93329
25.465 0.0645632 -0.00968378 -0.00188496 3.92573
25.47 -0.00634629 -0.0131934 -0.00188496 3.92297
25.475 -0.0124565 -0.00697411 -0.00219911 3.93125
25.48 -0.0223753 -0.00817188 -0.00219911 3.93453
25.485 0.0301467 4.8788e-05 -0.00219911 3.92664
25.49 0.135726 0.00952026 -0.00219911 3.92364
25.495 0.197208 0.0073917 -0.00219911 3.93173
25.5 0.267481 0.0114729 -0.00219911 3.9246
25.505 0.318398 0.0117889 -0.00219911 3.93243
25.51 0.358057 0.0127334 -0.00219911 3.9354
25.515 0.321558 0.00400655 -0.00219911 3.93755
25.52 0.277691 0.00187497 -0.00219911 3.93913
25.525 0.273983 0.0057433 -0.00188496 3.94027
25.53 0.217402 -0.00167968 -0.00188496 3.9411
25.535 0.155325 -0.00466913 -0.00188496 3.94171
25.54 0.0941697 -0.00716726 -0.00188496 3.95244
25.545 0.0618045 -0.00570162 -0.00188496 3.94722
25.55 0.0153439 -0.00934666 -0.00188496 3.94617
25.555 0.0397375 -0.00155364 -0.00188496 3.9454
25.56 0.0484819 -0.00310045 -0.00188496 3.94484
25.565 0.104702 0.00373953 -0.00188496 3.94444
25.57 0.158943 0.00563584 -0.00188496 3.94414
25.575 0.226664 0.00991984 -0.00188496 3.93364
25.58 0.307819 0.0144547 -0.0015708 3.92873
25.585 0.331479 0.0098695 -0.0015708 3.93545
25.59 0.316829 0.0054462 -0.00125664 3.93759
25.595 0.256187 -0.00135336 -0.00125664 3.93915
25.6 0.199306 -0.00346947 -0.000942478 3.94029
25.605 0.211834 0.00415374 -0.000942478 3.94112
25.61 0.226669 0.00508673 -0.000942478 3.94172
25.615 0.190505 -0.00146022 -0.000942478 3.94216
25.62 0.101663 -0.0104451 -0.000942478 3.9322
25.625 0.12707 0.00196739 -0.000942478 3.93797
25.63 0.158066 0.00378574 -0.000942478 3.92914
25.635 0.231422 0.0112007 -0.000942478 3.91517
25.64 0.256125 0.00727606 -0.000942478 3.91803
25.645 0.25392 0.00459173 -0.000942478 3.92765
25.65 0.28284 0.00923184 -0.000942478 3.92162
25.655 0.286252 0.0069667 -0.000942478 3.93027
25.66 0.282831 0.00603902 -0.000628319 3.93382
25.665 0.247914 0.00163356 -0.000628319 3.9364
25.67 0.250644 0.00572476 -0.000628319 3.93829
25.675 0.236041 0.00351074 -0.000628319 3.93966
25.68 0.242995 0.00573102 -0.000314159 3.94066
25.685 0.201511 -0.000770614 -0.000314159 3.9311
25.69 0.160473 -0.0027972 0 3.92689
25.695 0.195102 0.00628031 0 3.92381
25.7 0.143234 -0.00475324 0 3.92158
25.705 0.123126 -0.00247776 0 3.91995
25.71 0.117006 -0.0014939 0 3.91876
25.715 0.0672113 -0.0082862 0 3.92818
25.72 0.113576 0.00322508 0 3.92201
25.725 0.0860913 -0.00613661 0.000314159 3.93055
25.73 0.146994 0.00512408 0.000314159 3.93402
25.735 0.243672 0.0126289 0.000314159 3.93655
25.74 0.287926 0.00931779 0.000314159 3.92811
25.745 0.324867 0.0099662 0.000628319 3.92471
25.75 0.301489 0.00313902 0.000628319 3.92223
25.755 0.332978 0.0102788 0.000628319 3.93071
25.76 0.341591 0.00866981 0.000628319 3.92385
25.765 0.328896 0.00592305 0.000942478 3.93189
25.77 0.279832 0.000493791 0.000942478 3.935
25.775 0.222086 -0.00297391 0.00125664 3.93727
25.78 0.152019 -0.00711581 0.00125664 3.93892
25.785 0.0804755 -0.0103995 0.00125664 3.94012
25.79 0.0477843 -0.00816742 0.00125664 3.94099
25.795 0.0253805 -0.00849335 0.00125664 3.94163
25.8 0.0948285 0.00367605 0.000942478 3.93181
25.805 0.0835358 -0.00541467 0.000942478 3.93769
25.81 0.0679782 -0.00674331 0.000942478 3.92894
25.815 0.111881 0.000682537 0.000942478 3.9356
25.82 0.143957 0.000582063 0.000942478 3.9377
25.825 0.256863 0.0133061 0.000942478 3.93923
25.83 0.205671 -0.0057106 0.00125664 3.94035
25.835 0.118732 -0.0129344 0.00125664 3.94116
25.84 0.107917 -0.00594449 0.00125664 3.95204
25.845 0.0365642 -0.0151892 0.00125664 3.94693
25.85 0.106057 0.0016076 0.00125664 3.93567
25.855 0.0556047 -0.0129946 0.00125664 3.93021
25.86 0.0227313 -0.0129432 0.00125664 3.92624
25.865 -0.0379244 -0.0187648 0.00125664 3.92334
25.87 0.0101035 -0.00587176 0.000942478 3.92123
25.875 0.0664825 -0.00313866 0.000942478 3.9197
25.88 0.107717 -0.00341107 0.000942478 3.92886
25.885 0.138514 -0.00337773 0.000942478 3.9328
25.89 0.0786427 -0.0148402 0.000628319 3.93566
25.895 0.0599615 -0.0113167 0.000314159 3.93775
25.9 0.074674 -0.00761671 0.000314159 3.93927
25.905 0.132671 -0.00108547 0.000314159 3.94037
25.91 0.142474 -0.00558377 0.000314159 3.93089
25.915 0.112266 -0.0110324 0.000314159 3.92673
25.92 0.103227 -0.00903319 0 3.9237
25.925 0.104142 -0.00804323 0 3.91121
25.93 0.10539 -0.00825159 0 3.91514
25.935 0.0559234 -0.0152885 -0.000314159 3.91526
25.94 0.0192539 -0.015769 -0.000314159 3.91534
25.945 0.0136719 -0.0132824 -0.000314159 3.92569
25.95 0.0485684 -0.0080443 -0.000314159 3.93049
25.955 0.0461122 -0.0118716 -0.000628319 3.93398
25.96 0.0556189 -0.0105367 -0.000628319 3.93652
25.965 0.0764892 -0.0086349 -0.000628319 3.92809
25.97 0.0891008 -0.00894123 -0.000942478 3.93498
25.975 0.128508 -0.00419491 -0.00125664 3.92696
25.98 0.179518 -0.000813824 -0.00125664 3.91358
25.985 0.196273 -0.00332991 -0.0015708 3.91687
25.99 0.219295 -0.00155194 -0.0015708 3.91651
25.995 0.250528 0.000795529 -0.0015708 3.91626
26 0.193035 -0.010433 -0.0015708 3.91607
26.005 0.120547 -0.0149066 -0.0015708 3.92622
26.01 0.0914192 -0.0117091 -0.0015708 3.93087
26.015 0.0419988 -0.0155895 -0.00188496 3.93426
26.02 0.0424297 -0.0107513 -0.00188496 3.93673
26.025 0.0336047 -0.0121943 -0.00188496 3.92824
26.03 0.0642599 -0.00704754 -0.00188496 3.91451
26.035 0.116193 -0.0030642 -0.00188496 3.91755
26.04 0.266722 0.0135175 -0.00188496 3.90672
26.045 0.277005 -0.000347562 -0.00188496 3.91187
26.05 0.295467 0.00175164 -0.00188496 3.90259
26.055 0.307577 0.00153446 -0.0015708 3.90886
26.06 0.284043 -0.00273738 -0.0015708 3.92097
26.065 0.244989 -0.00556397 -0.0015708 3.92705
26.07 0.196314 -0.0086737 -0.00125664 3.93147
26.075 0.133861 -0.0125486 -0.00125664 3.93469
26.08 0.0898416 -0.0125462 -0.00125664 3.93704
26.085 0.0593408 -0.0122366 -0.0015708 3.93876
26.09 0.0606611 -0.00908625 -0.0015708 3.92972
26.095 0.0696103 -0.0083133 -0.0015708 3.93616
26.1 0.0910988 -0.00620995 -0.0015708 3.92783
26.105 0.132667 -0.00261022 -0.0015708 3.9245
26.11 0.172636 -0.00115276 -0.0015708 3.92208
26.115 0.179792 -0.00425084 -0.0015708 3.9306
26.12 0.249399 0.00460209 -0.00125664 3.94434
26.125 0.231137 -0.00476533 -0.00125664 3.95161
26.13 0.188274 -0.00838458 -0.0015708 3.94662
26.135 0.190697 -0.00371459 -0.0015708 3.95602
26.14 0.161296 -0.00793969 -0.0015708 3.94983
26.145 0.240611 0.0058168 -0.00125664 3.95836
26.15 0.252537 -0.000149363 -0.00125664 3.95153
26.155 0.187529 -0.0103894 -0.00125664 3.94931
26.16 0.171083 -0.00601687 -0.00125664 3.9374
26.165 0.146831 -0.00788584 -0.00125664 3.94176
26.17 0.128618 -0.00803953 -0.00125664 3.94219
26.175 0.135075 -0.00535444 -0.00125664 3.9425
26.18 0.121072 -0.00807598 -0.00125664 3.94273
26.185 0.151857 -0.00236409 -0.00125664 3.9429
26.19 0.201104 0.00152023 -0.00125664 3.94302
26.195 0.295824 0.0100128 -0.00125664 3.95339
26.2 0.303777 0.00203008 -0.00125664 3.94792
26.205 0.385629 0.0131247 -0.00125664 3.95696
26.21 0.381913 0.00462147 -0.000942478 3.95052
26.215 0.35085 0.00110339 -0.000942478 3.94857
26.22 0.332482 0.00208214 -0.000942478 3.94715
26.225 0.347472 0.00605156 -0.000628319 3.9564
26.23 0.292147 -0.00285942 -0.000628319 3.95011
26.235 0.130185 -0.0200228 -0.000628319 3.95856
26.24 0.0522325 -0.0148946 -0.000628319 3.95168
26.245 0.0382814 -0.00938697 -0.000628319 3.94942
26.25 0.0209219 -0.0108408 -0.000628319 3.94777
26.255 0.0192069 -0.00984514 -0.000628319 3.95685
26.26 -0.0354548 -0.0177567 -0.000628319 3.95044
26.265 0.00668117 -0.00658172 -0.000942478 3.9588
26.27 0.050564 -0.00488234 -0.000942478 3.95186
26.275 0.228575 0.0150986 -0.000628319 3.95983
26.28 0.252146 0.000713899 -0.000628319 3.96289
26.285 0.276838 0.00204177 -0.000628319 3.96513
26.29 0.332853 0.00784637 -0.000628319 3.95647
26.295 0.285242 -0.00458357 -0.000314159 3.96319
26.3 0.274497 -0.000985926 -0.000314159 3.95505
26.305 0.247245 -0.00398005 0 3.96216
26.31 0.188084 -0.00941534 0 3.95431
26.315 0.123353 -0.0127126 0 3.96162
26.32 -0.0469467 -0.0301141 -0.000314159 3.95391
26.325 -0.0512703 -0.0138088 -0.000628319 3.95104
26.33 -0.05214 -0.0141018 -0.000628319 3.94895
26.335 -0.000771075 -0.00692498 -0.000942478 3.94743
26.34 0.018896 -0.00952128 -0.00125664 3.9566
26.345 0.036837 -0.00881278 -0.0015708 3.95026
26.35 0.170503 0.00805517 -0.0015708 3.94838
26.355 0.245752 0.00514236 -0.0015708 3.9573
26.36 0.318204 0.00822078 -0.0015708 3.95076
26.365 0.296684 -0.00214696 -0.00125664 3.94875
26.37 0.214298 -0.0113649 -0.00125664 3.94728
26.375 0.148513 -0.0122778 -0.00125664 3.94621
26.38 0.109395 -0.0111679 -0.00125664 3.93515
26.385 0.0982175 -0.00906133 -0.00125664 3.94012
26.39 0.0194696 -0.019265 -0.00125664 3.93071
26.395 0.0288413 -0.0104097 -0.00125664 3.93689
26.4 -0.00459823 -0.0163575 -0.00125664 3.92835
26.405 0.0177974 -0.0103243 -0.00125664 3.93517
26.41 0.00943568 -0.014126 -0.00125664 3.93739
26.415 0.0268651 -0.0107964 -0.0015708 3.93901
26.42 0.0689273 -0.0070318 -0.0015708 3.95047
26.425 0.0482191 -0.0139078 -0.00188496 3.94579
26.43 0.101299 -0.00431914 -0.00219911 3.95541
26.435 0.141181 -0.00393156 -0.00219911 3.94939
26.44 0.181109 -0.00231101 -0.00219911 3.94775
26.445 0.155481 -0.0095322 -0.00251327 3.94655
26.45 0.174442 -0.00405969 -0.00251327 3.93539
26.455 0.190747 -0.00371553 -0.00251327 3.94029
26.46 0.138423 -0.0126788 -0.00251327 3.94112
26.465 0.123562 -0.00949064 -0.00251327 3.94173
26.47 0.0753036 -0.0150051 -0.00251327 3.95245
26.475 0.0475568 -0.0142041 -0.00251327 3.95752
26.48 0.0551046 -0.0104421 -0.00251327 3.95092
26.485 0.0622106 -0.0105825 -0.00251327 3.95915
26.49 0.0348971 -0.0148347 -0.00282743 3.95211
26.495 0.0613025 -0.00876084 -0.00282743 3.96002
26.5 0.153449 0.00167871 -0.00282743 3.95274
26.505 0.230239 0.00332382 -0.00282743 3.95019
26.51 0.237521 -0.00325684 -0.00282743 3.95862
26.515 0.208784 -0.00729364 -0.00314159 3.95173
26.52 0.206682 -0.00462303 -0.00314159 3.95974
26.525 0.162482 -0.0103608 -0.00314159 3.95254
26.53 0.156111 -0.00649834 -0.00345575 3.96033
26.535 0.134622 -0.00880015 -0.00345575 3.96326
26.54 0.0763083 -0.0147984 -0.00345575 3.9551
26.545 0.0563329 -0.0116782 -0.00376991 3.9622
26.55 0.0313311 -0.013243 -0.00376991 3.95434
26.555 0.0584873 -0.00729486 -0.00376991 3.96164
26.56 0.0798655 -0.00661541 -0.00408407 3.95392
26.565 0.109467 -0.00470895 -0.00408407 3.95105
26.57 0.144834 -0.00269281 -0.00408407 3.94896
26.575 0.269344 0.0113343 -0.00408407 3.95772
26.58 0.260847 -0.00224052 -0.00376991 3.95107
26.585 0.273271 0.000597782 -0.00376991 3.95926
26.59 0.218765 -0.00795939 -0.00376991 3.96248
26.595 0.206797 -0.00394742 -0.00376991 3.96482
26.6 0.189883 -0.00484424 -0.00376991 3.95624
26.605 0.177924 -0.00472111 -0.00376991 3.95274
26.61 0.134908 -0.00960228 -0.00376991 3.96048
26.615 0.0810294 -0.0127901 -0.00376991 3.95308
26.62 0.0649184 -0.00955613 -0.00408407 3.96072
26.625 0.0911752 -0.00421578 -0.00408407 3.95326
26.63 0.144631 0.000448258 -0.00408407 3.96085
26.635 0.15022 -0.00368376 -0.00439823 3.96364
26.64 0.12974 -0.0069757 -0.00439823 3.95538
26.645 0.151948 -0.00190832 -0.00439823 3.9624
26.65 0.238187 0.00816126 -0.00439823 3.96477
26.655 0.28173 0.00595601 -0.00439823 3.96649
26.66 0.272646 0.000707724 -0.00439823 3.96774
26.665 0.227476 -0.0043926 -0.00439823 3.96866
26.67 0.187017 -0.00533714 -0.00439823 3.96933
26.675 0.213222 0.00205403 -0.00408407 3.9801
26.68 0.202726 -0.00170748 -0.00408407 3.97491
26.685 0.210526 0.000201619 -0.00376991 3.97388
26.69 0.14331 -0.00987913 -0.00376991 3.97313
26.695 0.156679 -0.0013985 -0.00376991 3.98287
26.7 0.194996 0.00282965 -0.00376991 3.97693
26.705 0.280254 0.0111109 -0.00376991 3.97535
26.71 0.268808 0.000964915 -0.00345575 3.9742
26.715 0.247348 -0.000611357 -0.00345575 3.97336
26.72 0.220517 -0.00163445 -0.00376991 3.97275
26.725 0.208076 -0.000529866 -0.00376991 3.97231
26.73 0.256349 0.00766238 -0.00376991 3.97198
26.735 0.236089 0.000177841 -0.00376991 3.98203
26.74 0.194494 -0.00340672 -0.00376991 3.98661
26.745 0.117882 -0.00986714 -0.00376991 3.97966
26.75 0.144786 0.00141635 -0.00376991 3.97734
26.755 0.179437 0.00357661 -0.00376991 3.97565
26.76 0.194317 0.00179905 -0.00345575 3.9847
26.765 0.195282 0.000661594 -0.00345575 3.97827
26.77 0.180879 -0.00177249 -0.00314159 3.97632
26.775 0.192144 0.00129171 -0.00314159 3.97491
26.78 0.181521 -0.00125986 -0.00314159 3.97388
26.785 0.199176 0.00195909 -0.00282743 3.97313
26.79 0.178318 -0.00266612 -0.00282743 3.97258
26.795 0.146695 -0.00501713 -0.00282743 3.97218
26.8 0.164749 0.000630249 -0.00282743 3.97189
26.805 0.162731 -0.00184212 -0.00251327 3.97168
26.81 0.186083 0.00162903 -0.00251327 3.97153
26.815 0.19328 0.000345937 -0.00251327 3.97142
26.82 0.232299 0.00518443 -0.00251327 3.97133
26.825 0.230297 0.00107614 -0.00251327 3.98156
26.83 0.21889 0.000291254 -0.00282743 3.97598
26.835 0.22026 0.00172045 -0.00282743 3.97466
26.84 0.25596 0.00673607 -0.00282743 3.97369
26.845 0.257135 0.00347407 -0.00282743 3.98328
26.85 0.270525 0.00554868 -0.00282743 3.97723
26.855 0.247318 0.00116754 -0.00282743 3.97557
26.86 0.199465 -0.0030796 -0.00282743 3.97436
26.865 0.140946 -0.00649734 -0.00282743 3.97348
26.87 0.172333 0.00366965 -0.00282743 3.97284
26.875 0.151751 -0.0023881 -0.00282743 3.97237
26.88 0.0886706 -0.00934704 -0.00282743 3.98231
26.885 0.12803 0.00197802 -0.00251327 3.97653
26.89 0.0993945 -0.00622556 -0.00251327 3.98534
26.895 0.13255 0.00107696 -0.00251327 3.98902
26.9 0.0653387 -0.0117273 -0.00251327 3.9917
26.905 0.0633408 -0.00554643 -0.00251327 3.98336
26.91 0.0503899 -0.00797221 -0.00219911 3.99032
26.915 0.0253162 -0.0103959 -0.00219911 3.98235
26.92 0.0127327 -0.00998671 -0.00219911 3.96901
26.925 0.0380747 -0.00573313 -0.00219911 3.97232
26.93 0.0442691 -0.00757429 -0.00219911 3.9617
26.935 0.0697502 -0.00507938 -0.00219911 3.96699
26.94 0.174054 0.00707258 -0.00219911 3.95782
26.945 0.178461 -0.00292987 -0.00219911 3.96416
26.95 0.205344 0.000621289 -0.00219911 3.95576
26.955 0.161249 -0.00835778 -0.00219911 3.96266
26.96 0.126391 -0.00838458 -0.00251327 3.95466
26.965 0.111406 -0.00722574 -0.00251327 3.96187
26.97 0.0286069 -0.0170973 -0.00282743 3.95408
26.975 0.0396321 -0.0070398 -0.00314159 3.94087
26.98 -0.0628138 -0.0231755 -0.00314159 3.934
26.985 -0.0411359 -0.00980569 -0.00345575 3.92899
26.99 0.0120419 -0.00431229 -0.00376991 3.91505
26.995 0.0678112 -0.0022699 -0.00376991 3.91793
27 0.110782 -0.00209776 -0.00376991 3.92757
27.005 0.115831 -0.00564128 -0.00376991 3.92156
27.01 0.185487 0.00361786 -0.00376991 3.93022
27.015 0.179428 -0.00381603 -0.00408407 3.93378
27.02 0.157673 -0.00607334 -0.00408407 3.92609
27.025 0.164585 -0.00281881 -0.00408407 3.92323
27.03 0.115279 -0.0105455 -0.00408407 3.92115
27.035 0.0435996 -0.0158623 -0.00408407 3.91964
27.04 0.076212 -0.00402762 -0.00408407 3.91854
27.045 0.0801763 -0.00658419 -0.00439823 3.91773
27.05 0.0441522 -0.0123103 -0.00439823 3.91715
27.055 0.0371408 -0.00997322 -0.00439823 3.92701
27.06 0.0195012 -0.0114632 -0.00471239 3.92115
27.065 0.0361354 -0.00719739 -0.00502655 3.91964
27.07 0.0698835 -0.00441896 -0.00502655 3.92882
27.075 0.10535 -0.00248208 -0.00534071 3.93276
27.08 0.139911 -0.000793391 -0.00565487 3.93564
27.085 0.189145 0.00281808 -0.00565487 3.93773
27.09 0.212166 0.00146223 -0.00565487 3.92897
27.095 0.275882 0.00850109 -0.00565487 3.92533
27.1 0.330356 0.0102477 -0.00565487 3.92268
27.105 0.348328 0.00781685 -0.00565487 3.92075
27.11 0.337253 0.00497949 -0.00565487 3.91935
27.115 0.256709 -0.00498248 -0.00565487 3.92861
27.12 0.194279 -0.0053342 -0.00565487 3.93261
27.125 0.130832 -0.00824181 -0.00534071 3.93552
27.13 0.0817289 -0.00880396 -0.00534071 3.93765
27.135 0.0644058 -0.00629159 -0.00534071 3.92891
27.14 0.0368692 -0.00880426 -0.00534071 3.93557
27.145 0.0353345 -0.00591556 -0.00565487 3.9274
27.15 0.0982254 0.00301709 -0.00565487 3.92419
27.155 0.159194 0.00492576 -0.00534071 3.92185
27.16 0.201756 0.00474735 -0.00534071 3.93043
27.165 0.26152 0.00935771 -0.00534071 3.92365
27.17 0.242004 0.000650084 -0.00534071 3.93174
27.175 0.232927 0.0017675 -0.00534071 3.92461
27.18 0.257189 0.00594546 -0.00502655 3.93244
27.185 0.259197 0.00410968 -0.00502655 3.9354
27.19 0.218154 -0.00193814 -0.00471239 3.92727
27.195 0.22199 0.00288413 -0.00471239 3.93438
27.2 0.131908 -0.00975404 -0.00502655 3.92653
27.205 0.136623 -1.82903e-05 -0.00502655 3.93384
27.21 0.131999 -0.00103014 -0.00502655 3.92613
27.215 0.168408 0.00413051 -0.00471239 3.93355
27.22 0.198224 0.00478866 -0.00471239 3.93621
27.225 0.0987009 -0.0123363 -0.00471239 3.93815
27.23 0.213799 0.0143016 -0.00502655 3.94984
27.235 0.239631 0.00668259 -0.00502655 3.94533
27.24 0.338466 0.0183881 -0.00502655 3.94479
27.245 0.360613 0.0116687 -0.00471239 3.9444
27.25 0.387747 0.0134769 -0.00439823 3.94411
27.255 0.423699 0.0164583 -0.00439823 3.9439
27.26 0.468832 0.0194886 -0.00408407 3.95404
27.265 0.490066 0.0184345 -0.00376991 3.94839
27.27 0.37823 0.000790479 -0.00345575 3.94702
27.275 0.329259 0.0052735 -0.00314159 3.94602
27.28 0.261171 0.000520793 -0.00282743 3.94529
27.285 0.22089 0.00148046 -0.00251327 3.94476
27.29 0.0931526 -0.0126029 -0.00251327 3.94438
27.295 -0.0546182 -0.0210124 -0.00251327 3.9441
27.3 -0.0728094 -0.00928169 -0.00251327 3.94389
27.305 -0.0422704 -0.00377366 -0.00251327 3.94374
27.31 -0.0223705 -0.0046344 -0.00251327 3.94364
27.315 0.00969788 -0.00249065 -0.00251327 3.93327
27.32 0.0739972 0.0028392 -0.00251327 3.93875
27.325 0.110126 0.000984896 -0.00219911 3.92971
27.33 0.281885 0.021568 -0.00219911 3.93616
27.335 0.390313 0.0195277 -0.00188496 3.93811
27.34 0.39994 0.0104779 -0.00188496 3.92924
27.345 0.362237 0.00422398 -0.0015708 3.93582
27.35 0.368929 0.00952697 -0.0015708 3.92758
27.355 0.302381 -0.000286155 -0.0015708 3.91403
27.36 0.268021 0.00182354 -0.0015708 3.9172
27.365 0.198454 -0.00485554 -0.00125664 3.91676
27.37 0.115142 -0.00937849 -0.0015708 3.91643
27.375 0.0433672 -0.0113954 -0.0015708 3.9162
27.38 -0.0157001 -0.0130015 -0.0015708 3.92632
27.385 0.0529106 0.00272132 -0.00188496 3.93095
27.39 0.0657434 -0.00280011 -0.00188496 3.93432
27.395 0.0836378 -0.00139748 -0.00219911 3.92649
27.4 0.115717 0.00097499 -0.00219911 3.93382
27.405 0.212175 0.0113658 -0.00219911 3.93642
27.41 0.246624 0.00655286 -0.00219911 3.93831
27.415 0.245557 0.00313695 -0.00219911 3.9294
27.42 0.256973 0.00493933 -0.00219911 3.93594
27.425 0.215489 -0.00231681 -0.00188496 3.93796
27.43 0.230214 0.00370567 -0.0015708 3.93943
27.435 0.120405 -0.0133869 -0.0015708 3.9405
27.44 0.0898587 -0.0071572 -0.00125664 3.94128
27.445 0.055828 -0.00927339 -0.00125664 3.95214
27.45 0.00987172 -0.0126924 -0.00125664 3.9573
27.455 0.00892276 -0.00856497 -0.00125664 3.95077
27.46 -0.0996268 -0.0241143 -0.0015708 3.95905
27.465 -0.102851 -0.0138592 -0.00188496 3.95205
27.47 -0.095902 -0.012951 -0.00219911 3.94969
27.475 0.034726 0.00462656 -0.00251327 3.94798
27.48 0.0902073 -0.000859266 -0.00251327 3.93643
27.485 0.143759 0.000788643 -0.00251327 3.94106
27.49 0.253679 0.0112296 -0.00282743 3.95196
27.495 0.223599 -0.00375774 -0.00282743 3.94688
27.5 0.267978 0.00612566 -0.00314159 3.94592
27.505 0.184123 -0.0100381 -0.00314159 3.94522
27.51 0.18898 -0.000778837 -0.00314159 3.94471
27.515 0.184107 -0.00188734 -0.00314159 3.94434
27.52 0.0961116 -0.0141913 -0.00282743 3.93378
27.525 0.0497113 -0.0120803 -0.00282743 3.92884
27.53 -0.00163311 -0.0150096 -0.00282743 3.92524
27.535 -0.0702105 -0.0195796 -0.00314159 3.91233
27.54 -0.0703081 -0.0127844 -0.00345575 3.90567
27.545 -0.00671768 -0.00393745 -0.00376991 3.9111
27.55 0.0772653 0.00111599 -0.00376991 3.9226
27.555 0.0992486 -0.0042801 -0.00376991 3.91795
27.56 0.128246 -0.00228336 -0.00408407 3.92759
27.565 0.158359 -0.000531709 -0.00439823 3.93187
27.57 0.260337 0.0110785 -0.00439823 3.93498
27.575 0.318684 0.00938098 -0.00439823 3.93725
27.58 0.336212 0.00691573 -0.00471239 3.92862
27.585 0.302042 0.000710927 -0.00471239 3.92508
27.59 0.196121 -0.0102428 -0.00502655 3.9225
27.595 0.150247 -0.00538479 -0.00534071 3.91033
27.6 0.19337 0.00546805 -0.00534071 3.9145
27.605 0.201599 0.00276936 -0.00565487 3.91479
27.61 0.0902004 -0.0139865 -0.00565487 3.915
27.615 -0.0479906 -0.0226329 -0.00565487 3.92545
27.62 -0.0973279 -0.0156389 -0.00596903 3.9303
27.625 -0.0554251 -0.005365 -0.00596903 3.94413
27.63 0.00573185 -0.00150541 -0.00596903 3.96174
27.635 0.171894 0.0158084 -0.00596903 3.96154
27.64 0.249714 0.0100348 -0.00565487 3.95385
27.645 0.351503 0.0171403 -0.00565487 3.94071
27.65 0.347161 0.00672836 -0.00565487 3.93389
27.655 0.434677 0.0203122 -0.00565487 3.92892
27.66 0.508683 0.0223054 -0.00534071 3.93558
27.665 0.496513 0.0136483 -0.00502655 3.93769
27.67 0.407254 0.00302672 -0.00502655 3.94951
27.675 0.208416 -0.0155225 -0.00502655 3.95537
27.68 0.174483 -0.000537555 -0.00471239 3.95965
27.685 0.195499 0.00551317 -0.00439823 3.96276
27.69 0.29538 0.0167108 -0.00376991 3.97532
27.695 0.296786 0.00700704 -0.00345575 3.97143
27.7 0.254514 0.000453338 -0.00282743 3.97134
27.705 0.301703 0.0112556 -0.00251327 3.96099
27.71 0.261842 0.000799728 -0.00219911 3.94592
27.715 0.238155 0.001564 -0.00219911 3.94796
27.72 0.210849 -0.000112196 -0.00188496 3.93642
27.725 0.256046 0.00880842 -0.0015708 3.93076
27.73 0.120238 -0.0155217 -0.00125664 3.93692
27.735 -0.102363 -0.0333698 -0.0015708 3.93867
27.74 -0.172035 -0.0211852 -0.00188496 3.95022
27.745 -0.027009 0.00569653 -0.00219911 3.96618
27.75 0.181974 0.0207135 -0.00251327 3.96477
27.755 0.22633 0.00647469 -0.00282743 3.95621
27.76 0.316667 0.0153188 -0.00314159 3.95272
27.765 0.338258 0.010082 -0.00345575 3.93989
27.77 0.483274 0.0290826 -0.00345575 3.93328
27.775 0.574359 0.0281704 -0.00345575 3.92848
27.78 0.62043 0.0265115 -0.00345575 3.92497
27.785 0.547525 0.012027 -0.00314159 3.91213
27.79 0.440845 0.00505976 -0.00314159 3.91581
27.795 0.396596 0.00991049 -0.00282743 3.92604
27.8 0.265496 -0.00419476 -0.00251327 3.94102
27.805 0.075709 -0.0181526 -0.00219911 3.94919
27.81 0.0792095 0.00122021 -0.00219911 3.94486
27.815 -0.100147 -0.0250703 -0.00219911 3.95473
27.82 -0.106376 -0.00884206 -0.00188496 3.93861
27.825 -0.129999 -0.0125045 -0.00188496 3.93235
27.83 -0.00236726 0.00735499 -0.00188496 3.9278
27.835 0.0444943 0.000502447 -0.00188496 3.92448
27.84 0.124175 0.00656281 -0.0015708 3.91177
27.845 0.332074 0.0280372 -0.0015708 3.91555
27.85 0.373202 0.0128762 -0.0015708 3.92584
27.855 0.454256 0.0208721 -0.0015708 3.92031
27.86 0.396925 0.00455767 -0.00125664 3.92931
27.865 0.322163 -0.000178157 -0.000942478 3.93312
27.87 0.270047 -0.000454339 -0.000314159 3.92561
27.875 0.396591 0.022841 0 3.92288
27.88 0.196401 -0.0191797 0.000628319 3.93119
27.885 0.175928 -0.00173708 0.000628319 3.9242
27.89 -0.147392 -0.0461515 0.000314159 3.91157
27.895 -0.057404 -0.000374961 0 3.90512
27.9 0.125354 0.0157742 0.000314159 3.90042
27.905 0.280728 0.0189957 0.000314159 3.90728
27.91 0.181733 -0.0112016 0.000314159 3.90953
27.915 0.0858565 -0.0146041 0 3.92146
27.92 0.122739 0.000927001 -0.000628319 3.9274
27.925 0.248755 0.0152096 -0.000942478 3.94202
27.93 0.396662 0.0241368 -0.00125664 3.93963
27.935 0.291129 -0.0051311 -0.0015708 3.94064
27.94 0.299875 0.00711342 -0.0015708 3.93109
27.945 0.170281 -0.0118477 -0.00188496 3.91659
27.95 0.149533 -0.00132203 -0.00219911 3.91906
27.955 0.161638 0.00288636 -0.00251327 3.90783
27.96 0.260087 0.015296 -0.00219911 3.91268
27.965 0.282909 0.00854407 -0.00219911 3.92375
27.97 0.120836 -0.0171663 -0.00188496 3.93936
27.975 0.0195959 -0.0153164 -0.00188496 3.93769
27.98 -0.0369384 -0.0136943 -0.00188496 3.94951
27.985 -0.023547 -0.00704256 -0.0015708 3.95538
27.99 0.0128072 -0.0036857 -0.0015708 3.94936
27.995 -0.0250872 -0.0132914 -0.0015708 3.94773
28 -0.00187907 -0.00673008 -0.0015708 3.94654
28.005 0.0180823 -0.00660276 -0.0015708 3.93539
28.01 0.135517 0.00751936 -0.0015708 3.94029
28.015 0.236218 0.0100563 -0.0015708 3.93083
28.02 0.216445 -0.00297794 -0.0015708 3.92669
28.025 0.260099 0.0057679 -0.00188496 3.92367
28.03 0.230236 -0.00288864 -0.00188496 3.93176
28.035 0.210349 -0.00263762 -0.00188496 3.94519
28.04 0.229102 0.00212657 -0.00188496 3.95223
28.045 0.237757 0.00166803 -0.00188496 3.94707
28.05 0.199528 -0.00463289 -0.00188496 3.95634
28.055 0.0907305 -0.0161215 -0.00188496 3.95007
28.06 -0.0102611 -0.019376 -0.00219911 3.93796
28.065 0.00246102 -0.00781993 -0.00219911 3.93188
28.07 0.116759 0.00682779 -0.00219911 3.92745
28.075 0.162592 0.00155992 -0.00219911 3.92423
28.08 0.142199 -0.00658005 -0.00188496 3.93216
28.085 0.099308 -0.0103467 -0.00219911 3.9352
28.09 0.0956029 -0.00646545 -0.00251327 3.9477
28.095 0.115757 -0.00302657 -0.00282743 3.95405
28.1 0.079768 -0.0103028 -0.00282743 3.95869
28.105 0.150344 0.00361327 -0.00314159 3.95177
28.11 0.16418 -0.00162888 -0.00314159 3.94949
28.115 0.225438 0.00584724 -0.00314159 3.93753
28.12 0.229252 0.000531682 -0.00345575 3.94186
28.125 0.119083 -0.014981 -0.00376991 3.93197
28.13 0.0975893 -0.00648918 -0.00408407 3.91723
28.135 0.11359 -0.00193402 -0.00439823 3.91953
28.14 0.242645 0.0147601 -0.00439823 3.92874
28.145 0.109207 -0.0176424 -0.00408407 3.93271
28.15 -0.0180636 -0.0220712 -0.00439823 3.94588
28.155 -0.0641638 -0.0157826 -0.00471239 3.95273
28.16 0.0350918 0.00240104 -0.00471239 3.95772
28.165 0.179321 0.0125581 -0.00471239 3.96136
28.17 0.328485 0.0194871 -0.00471239 3.95372
28.175 0.383938 0.0125355 -0.00439823 3.94062
28.18 0.381217 0.00699419 -0.00439823 3.9441
28.185 0.342378 0.002415 -0.00439823 3.93361
28.19 0.452087 0.022592 -0.00439823 3.92871
28.195 0.482587 0.0161572 -0.00408407 3.92515
28.2 0.357438 -0.00414823 -0.00408407 3.93283
28.205 0.196259 -0.0143198 -0.00376991 3.94597
28.21 0.10248 -0.0112794 -0.00376991 3.9528
28.215 -0.0567544 -0.0246088 -0.00376991 3.95777
28.22 -0.0667436 -0.0102405 -0.00408407 3.96139
28.225 0.0179588 0.00212689 -0.00408407 3.96403
28.23 0.0615113 -0.000452213 -0.00408407 3.95567
28.235 0.202261 0.014485 -0.00376991 3.95232
28.24 0.158165 -0.00583913 -0.00376991 3.9396
28.245 0.338706 0.0246957 -0.00376991 3.92279
28.25 0.408387 0.0161516 -0.00345575 3.92358
28.255 0.4732 0.0186206 -0.00314159 3.9214
28.26 0.517238 0.0187236 -0.00282743 3.91982
28.265 0.415821 0.000457608 -0.00282743 3.92895
28.27 0.359825 0.00301107 -0.00251327 3.93286
28.275 0.338475 0.00534766 -0.00188496 3.93571
28.28 0.295618 0.000997271 -0.00125664 3.93778
28.285 0.287453 0.00372264 -0.000628319 3.929
28.29 0.292326 0.00425191 0.000314159 3.93564
28.295 0.233963 -0.005133 0.000942478 3.92745
28.3 0.238294 0.00113939 0.00125664 3.91394
28.305 0.115606 -0.0174505 0.0015708 3.91712
28.31 0.0585099 -0.0133583 0.0015708 3.90642
28.315 0.183415 0.00983834 0.00188496 3.90136
28.32 0.250445 0.00602309 0.00219911 3.90797
28.325 0.188592 -0.00982405 0.00219911 3.92032
28.33 0.0379021 -0.0253126 0.00219911 3.91629
28.335 0.0611031 -0.00637984 0.0015708 3.92638
28.34 0.10348 -0.00273758 0.00125664 3.93098
28.345 0.26474 0.0162437 0.000942478 3.92405
28.35 0.32564 0.00901114 0.000628319 3.91147
28.355 0.243943 -0.00813695 0 3.91533
28.36 0.238763 3.51423e-06 -0.000314159 3.90511
28.365 0.260915 0.00408993 -0.000628319 3.9107
28.37 0.277141 0.00434888 -0.000628319 3.90173
28.375 0.40579 0.0213897 -0.000628319 3.90824
28.38 0.332677 -0.00195721 -0.000628319 3.92052
28.385 0.162696 -0.0190217 -0.000314159 3.91643
28.39 0.0418356 -0.019527 0 3.92648
28.395 -0.0414075 -0.0199435 0.000314159 3.93106
28.4 -0.135205 -0.0259592 0.000628319 3.9344
28.405 -0.143247 -0.018869 0.000942478 3.93683
28.41 -0.161869 -0.0216751 0.000942478 3.9386
28.415 -0.123505 -0.0151257 0.000942478 3.9296
28.42 0.0636913 0.00683831 0.00125664 3.9155
28.425 0.186531 0.00435324 0.0015708 3.91827
28.43 0.35218 0.015964 0.00125664 3.91754
28.435 0.229928 -0.0183303 0.00125664 3.917
28.44 0.321839 0.00813537 0.000628319 3.9269
28.445 0.339916 0.00165787 0.000628319 3.93137
28.45 0.333619 -0.00038412 0.000314159 3.93462
28.455 0.356925 0.00391408 0.000314159 3.93699
28.46 0.26811 -0.0107727 0.000314159 3.92843
28.465 0.169366 -0.0157671 0.000314159 3.92494
28.47 0.0317016 -0.0248636 -0.000314159 3.91211
28.475 0.0384866 -0.00980166 -0.000628319 3.90551
28.48 0.148424 0.00504144 -0.000628319 3.9007
28.485 0.238606 0.00662553 -0.000628319 3.8972
28.49 0.148339 -0.0161831 -0.000314159 3.90494
28.495 0.065704 -0.0188845 -0.000314159 3.89754
28.5 -0.0417268 -0.0260168 -0.000628319 3.90518
28.505 0.026219 -0.00564818 -0.000628319 3.908
28.51 0.0527971 -0.00924971 -0.000628319 3.91006
28.515 0.0403215 -0.0139083 -0.000942478 3.92184
28.52 0.0131242 -0.0167617 -0.000942478 3.91739
28.525 -0.0610963 -0.0247074 -0.00125664 3.90661
28.53 -0.00536612 -0.00960199 -0.00125664 3.90151
28.535 0.115783 0.00213533 -0.0015708 3.89779
28.54 0.194239 0.000839111 -0.0015708 3.89508
28.545 0.155865 -0.0124872 -0.00188496 3.8931
28.55 0.0787591 -0.0198426 -0.00188496 3.90195
28.555 0.0801571 -0.0116196 -0.00219911 3.91593
28.56 0.111089 -0.00711249 -0.00251327 3.92338
28.565 0.0538931 -0.0186108 -0.00251327 3.9288
28.57 0.0520356 -0.0129384 -0.00282743 3.93275
28.575 -0.0093292 -0.0214319 -0.00314159 3.93562
28.58 -0.0436058 -0.0199911 -0.00345575 3.92743
28.585 0.0324591 -0.00608084 -0.00345575 3.92421
28.59 0.134399 0.000884844 -0.00376991 3.92187
28.595 0.182088 -0.00270515 -0.00376991 3.92016
28.6 0.199126 -0.00502388 -0.00376991 3.91891
28.605 0.174738 -0.0102568 -0.00376991 3.92829
28.61 0.160991 -0.00923289 -0.00408407 3.93238
28.615 0.0808748 -0.0192358 -0.00408407 3.93536
28.62 0.0638095 -0.0138119 -0.00408407 3.94781
28.625 0.0548083 -0.0131331 -0.00439823 3.95414
28.63 0.0257051 -0.0164036 -0.00439823 3.94846
28.635 -0.0153771 -0.0192658 -0.00471239 3.94707
28.64 0.010266 -0.0114511 -0.00502655 3.94606
28.645 0.0602852 -0.00699462 -0.00502655 3.93504
28.65 0.125109 -0.00278265 -0.00502655 3.91947
28.655 0.244974 0.00798286 -0.00534071 3.92115
28.66 0.256814 -0.00237623 -0.00534071 3.92993
28.665 0.222149 -0.00814437 -0.00534071 3.93357
28.67 0.206104 -0.00627126 -0.00565487 3.93622
28.675 0.234668 -0.000482788 -0.00565487 3.94844
28.68 0.203792 -0.0072912 -0.00565487 3.94431
28.685 0.175909 -0.00845441 -0.00534071 3.95434
28.69 0.148353 -0.00924854 -0.00534071 3.9486
28.695 0.170899 -0.00359699 -0.00502655 3.94718
28.7 0.168171 -0.00652688 -0.00471239 3.94614
28.705 0.203072 -0.00101347 -0.00471239 3.93509
28.71 0.147144 -0.0124562 -0.00471239 3.92979
28.715 0.158766 -0.00503379 -0.00471239 3.92593
28.72 0.236031 0.00440932 -0.00439823 3.93341
28.725 0.21807 -0.00610212 -0.00408407 3.9361
28.73 0.187314 -0.00857988 -0.00408407 3.94836
28.735 0.104441 -0.0170914 -0.00408407 3.95453
28.74 0.0995743 -0.00915945 -0.00439823 3.95904
28.745 0.143461 -0.00235208 -0.00471239 3.9726
28.75 0.160408 -0.00414943 -0.00471239 3.96945
28.755 0.185831 -0.00172127 -0.00502655 3.95962
28.76 0.131253 -0.0119381 -0.00502655 3.9552
28.765 0.151377 -0.00321562 -0.00534071 3.95198
28.77 0.202412 0.00206383 -0.00534071 3.94963
28.775 0.270929 0.00684394 -0.00534071 3.94793
28.78 0.254163 -0.00212293 -0.00534071 3.94668
28.785 0.179803 -0.0107172 -0.00534071 3.94578
28.79 0.0606101 -0.0201221 -0.00534071 3.9554
28.795 -0.00947264 -0.0181105 -0.00534071 3.94938
28.8 -0.0188559 -0.0132987 -0.00502655 3.95803
28.805 -0.0386086 -0.0155068 -0.00502655 3.96158
28.81 -0.0280606 -0.0123067 -0.00502655 3.95388
28.815 0.0154788 -0.00764367 -0.00502655 3.95102
28.82 0.21632 0.0158903 -0.00471239 3.94894
28.825 0.334779 0.0123076 -0.00439823 3.94742
28.83 0.373103 0.00644394 -0.00439823 3.93603
28.835 0.369855 0.00218926 -0.00408407 3.94076
28.84 0.403281 0.00803756 -0.00408407 3.93117
28.845 0.458489 0.0130744 -0.00408407 3.93722
28.85 0.452225 0.00702042 -0.00376991 3.93889
28.855 0.388483 -0.000688765 -0.00376991 3.9401
28.86 0.235002 -0.0155548 -0.00376991 3.94098
28.865 0.145783 -0.0121289 -0.00408407 3.93134
28.87 0.125399 -0.00612112 -0.00408407 3.93734
28.875 0.14627 -0.0010128 -0.00408407 3.92869
28.88 0.136052 -0.00469917 -0.00408407 3.92513
28.885 0.098149 -0.00882018 -0.00439823 3.92253
28.89 0.0482945 -0.0119169 -0.00471239 3.92064
28.895 0.0721141 -0.00364875 -0.00471239 3.91927
28.9 0.214953 0.0142906 -0.00471239 3.91826
28.905 0.287309 0.0096967 -0.00439823 3.92782
28.91 0.321474 0.00757377 -0.00439823 3.93203
28.915 0.291883 -9.16393e-05 -0.00408407 3.93511
28.92 0.305658 0.00485597 -0.00376991 3.93734
28.925 0.330335 0.00696858 -0.00345575 3.93897
28.93 0.369395 0.00982195 -0.00282743 3.92987
28.935 0.285067 -0.00621886 -0.00251327 3.93628
28.94 0.111653 -0.0225612 -0.00219911 3.92791
28.945 0.0664132 -0.0116459 -0.00219911 3.93485
28.95 0.0451373 -0.0102794 -0.00219911 3.92687
28.955 0.0489463 -0.00808808 -0.00219911 3.93409
28.96 0.0706559 -0.00533005 -0.00251327 3.9366
28.965 0.0625838 -0.00898636 -0.00251327 3.93843
28.97 0.099167 -0.00301961 -0.00282743 3.95005
28.975 0.189503 0.00631553 -0.00314159 3.95577
28.98 0.24204 0.00470488 -0.00314159 3.95994
28.985 0.302068 0.00846628 -0.00345575 3.96297
28.99 0.281964 -6.74105e-05 -0.00345575 3.96518
28.995 0.299688 0.00472977 -0.00345575 3.96679
29 0.257074 -0.00274846 -0.00345575 3.96797
29.005 0.271262 0.00382415 -0.00345575 3.95853
29.01 0.192683 -0.0089737 -0.00314159 3.9647
29.015 0.165109 -0.00486035 -0.00314159 3.95615
29.02 0.103204 -0.0113346 -0.00282743 3.95267
29.025 -0.000915945 -0.0201737 -0.00282743 3.96043
29.03 0.0420972 -0.00444389 -0.00251327 3.96333
29.035 0.0032708 -0.0146259 -0.00251327 3.96544
29.04 0.00397789 -0.0109681 -0.00251327 3.9567
29.045 -0.0752297 -0.0228917 -0.00251327 3.96336
29.05 -0.00106794 -0.00450736 -0.00282743 3.95518
29.055 0.103543 0.00218183 -0.00282743 3.96225
29.06 0.13426 -0.0039518 -0.00282743 3.95437
29.065 0.169065 -0.00185885 -0.00314159 3.95138
29.07 0.166123 -0.00578177 -0.00314159 3.9492
29.075 0.175562 -0.00413316 -0.00314159 3.94761
29.08 0.137329 -0.0105069 -0.00314159 3.94645
29.085 0.13905 -0.00609018 -0.00345575 3.94561
29.09 0.0676487 -0.0165032 -0.00345575 3.94499
29.095 0.0440135 -0.0125106 -0.00376991 3.94454
29.1 0.0682294 -0.00694988 -0.00376991 3.94422
29.105 0.092648 -0.00577638 -0.00408407 3.94398
29.11 0.142632 -0.0012675 -0.00408407 3.94381
29.115 0.0834132 -0.0149036 -0.00408407 3.95397
29.12 0.114525 -0.00448013 -0.00408407 3.94834
29.125 0.0625791 -0.0151598 -0.00408407 3.94698
29.13 0.0718988 -0.00878953 -0.00408407 3.94599
29.135 0.00875747 -0.0185613 -0.00439823 3.94527
29.14 -0.00324407 -0.0138508 -0.00471239 3.94475
29.145 0.00659797 -0.0117653 -0.00471239 3.95465
29.15 0.0337933 -0.00899151 -0.00471239 3.94884
29.155 0.0633844 -0.0076461 -0.00502655 3.95763
29.16 0.115642 -0.00333416 -0.00502655 3.96129
29.165 0.0917636 -0.0119856 -0.00502655 3.96396
29.17 0.108216 -0.00697865 -0.00534071 3.9659
29.175 0.140011 -0.00416942 -0.00534071 3.96732
29.18 0.117562 -0.0103334 -0.00534071 3.95806
29.185 0.111651 -0.00875352 -0.00565487 3.96435
29.19 0.0819965 -0.0118131 -0.00596903 3.9559
29.195 0.0683426 -0.0108984 -0.00596903 3.95249
29.2 0.0497287 -0.0119222 -0.00628319 3.95001
29.205 0.107999 -0.00173709 -0.00659734 3.95848
29.21 0.108738 -0.00727369 -0.00659734 3.95163
29.215 0.091599 -0.00998294 -0.00659734 3.95966
29.22 0.0642615 -0.011598 -0.0069115 3.95249
29.225 0.0113274 -0.0166586 -0.0069115 3.96029
29.23 0.0593596 -0.00492994 -0.0069115 3.9735
29.235 0.0583873 -0.00973028 -0.0069115 3.9701
29.24 0.152636 0.003746 -0.0069115 3.96008
29.245 0.214202 0.00309091 -0.0069115 3.95553
29.25 0.240575 0.00110441 -0.0069115 3.94193
29.255 0.212672 -0.00511681 -0.0069115 3.92448
29.26 0.230442 0.000391255 -0.0069115 3.9248
29.265 0.267814 0.00449683 -0.0069115 3.912
29.27 0.249475 -0.00176786 -0.0069115 3.91571
29.275 0.207665 -0.00562406 -0.0069115 3.92595
29.28 0.0810373 -0.0191577 -0.0069115 3.92038
29.285 0.0243721 -0.0142075 -0.00722566 3.92935
29.29 -0.020125 -0.0146013 -0.00753982 3.93314
29.295 0.0543505 0.000278353 -0.00753982 3.9359
29.3 0.124472 0.00281998 -0.00753982 3.92763
29.305 0.173914 0.00277029 -0.00753982 3.92435
29.31 0.205519 0.0020819 -0.00722566 3.92196
29.315 0.259015 0.00681336 -0.00722566 3.92022
29.32 0.274945 0.00416513 -0.00722566 3.90866
29.325 0.362819 0.0153116 -0.0069115 3.903
29.33 0.372454 0.00813473 -0.0069115 3.90916
29.335 0.305673 -0.00218802 -0.00659734 3.9109
29.34 0.202107 -0.00985278 -0.00659734 3.92246
29.345 0.148245 -0.00721069 -0.00628319 3.93841
29.35 0.171896 0.00171343 -0.00628319 3.94729
29.355 0.167762 -0.00152443 -0.00596903 3.95376
29.36 0.182288 0.00104093 -0.00596903 3.95847
29.365 0.122106 -0.00873297 -0.00596903 3.95162
29.37 0.169476 0.00401923 -0.00596903 3.94937
29.375 0.263595 0.0127223 -0.00596903 3.94774
29.38 0.335058 0.0138632 -0.00596903 3.93626
29.385 0.385039 0.0137436 -0.00565487 3.94093
29.39 0.397442 0.0108193 -0.00534071 3.9313
29.395 0.407751 0.011572 -0.00534071 3.93731
29.4 0.371825 0.0056991 -0.00502655 3.93895
29.405 0.306225 0.000156525 -0.00471239 3.94014
29.41 0.223105 -0.00472263 -0.00471239 3.9513
29.415 0.138058 -0.00824568 -0.00471239 3.95668
29.42 0.0849903 -0.00721994 -0.00471239 3.95031
29.425 0.0285886 -0.0100694 -0.00471239 3.93813
29.43 0.00686014 -0.00784839 -0.00471239 3.93201
29.435 -0.0121162 -0.00877757 -0.00471239 3.92755
29.44 0.0412062 0.000175821 -0.00439823 3.91401
29.445 0.171216 0.0129462 -0.00439823 3.91718
29.45 0.183592 0.00118544 -0.00408407 3.90646
29.455 0.233673 0.00705934 -0.00408407 3.91168
29.46 0.267159 0.00646765 -0.00376991 3.92302
29.465 0.210837 -0.00470266 -0.00376991 3.91825
29.47 0.213444 0.00154339 -0.00376991 3.91753
29.475 0.246206 0.00563084 -0.00345575 3.92728
29.48 0.204039 -0.00347999 -0.00345575 3.92136
29.485 0.138169 -0.00859871 -0.00345575 3.91979
29.49 0.125345 -0.00368063 -0.00345575 3.90836
29.495 0.0571144 -0.012492 -0.00345575 3.91306
29.5 0.0964492 0.000459238 -0.00376991 3.90346
29.505 0.131367 0.00123207 -0.00376991 3.89921
29.51 0.0968985 -0.00759931 -0.00376991 3.9064
29.515 0.139734 0.00238105 -0.00408407 3.90889
29.52 0.143006 -0.00174201 -0.00408407 3.92099
29.525 0.216744 0.00886866 -0.00439823 3.92706
29.53 0.237035 0.00450807 -0.00439823 3.92119
29.535 0.294881 0.0109303 -0.00439823 3.91967
29.54 0.279091 0.00305656 -0.00439823 3.91856
29.545 0.185987 -0.00845511 -0.00439823 3.91775
29.55 0.171316 -0.000852527 -0.00439823 3.90687
29.555 0.0794374 -0.0130634 -0.00408407 3.90169
29.56 0.0760014 -0.00439446 -0.00408407 3.90821
29.565 0.0730825 -0.00466168 -0.00408407 3.91021
29.57 -0.00922388 -0.0165057 -0.00408407 3.91166
29.575 0.0221871 -0.003931 -0.00408407 3.91273
29.58 -0.0165787 -0.0132485 -0.00408407 3.92379
29.585 0.0239042 -0.00387857 -0.00408407 3.9291
29.59 0.0508387 -0.00432989 -0.00408407 3.92268
29.595 0.074441 -0.00416538 -0.00408407 3.93104
29.6 0.102327 -0.00257691 -0.00408407 3.92409
29.605 0.107358 -0.00473618 -0.00408407 3.91149
29.61 0.179001 0.00479333 -0.00408407 3.91535
29.615 0.103723 -0.0128874 -0.00439823 3.90512
29.62 0.148687 0.0012906 -0.00439823 3.90042
29.625 0.139762 -0.00479808 -0.00439823 3.90728
29.63 0.109209 -0.00827463 -0.00439823 3.90953
29.635 0.0707991 -0.0107719 -0.00439823 3.91117
29.64 0.00361145 -0.0163559 -0.00471239 3.91237
29.645 0.000531375 -0.0103904 -0.00471239 3.92352
29.65 -0.00776267 -0.0114166 -0.00471239 3.91862
29.655 0.0109167 -0.00775285 -0.00502655 3.90751
29.66 0.0165441 -0.00923466 -0.00502655 3.90216
29.665 0.0446232 -0.00584244 -0.00502655 3.88797
29.67 0.0937838 -0.00203782 -0.00502655 3.89067
29.675 0.118898 -0.00352906 -0.00502655 3.88989
29.68 0.119164 -0.00576345 -0.00534071 3.88933
29.685 0.115303 -0.0065125 -0.00534071 3.8992
29.69 0.0787388 -0.0112525 -0.00534071 3.89336
29.695 0.0670761 -0.00945604 -0.00534071 3.90214
29.7 0.0315212 -0.0134917 -0.00534071 3.90579
29.705 0.0263562 -0.0102605 -0.00565487 3.89817
29.71 0.0347113 -0.00896624 -0.00565487 3.90565
29.715 0.0968383 -0.000982168 -0.00565487 3.90835
29.72 0.118672 -0.00409436 -0.00565487 3.90004
29.725 0.166223 0.000702885 -0.00596903 3.90701
29.73 0.18919 -0.000519431 -0.00596903 3.89906
29.735 0.199394 -0.00125353 -0.00596903 3.89601
29.74 0.206145 -0.000739227 -0.00628319 3.89379
29.745 0.171342 -0.00638448 -0.00628319 3.90246
29.75 0.204389 0.00221109 -0.00628319 3.90603
29.755 0.122731 -0.0128734 -0.00628319 3.91891
29.76 0.117426 -0.00482471 -0.00659734 3.92556
29.765 0.0402166 -0.015236 -0.00659734 3.92011
29.77 0.0446914 -0.00688866 -0.00659734 3.91889
29.775 0.0611687 -0.00513871 -0.00659734 3.91799
29.78 0.0998686 -0.00136868 -0.00659734 3.91735
29.785 0.143628 0.000588162 -0.00628319 3.91687
29.79 0.197708 0.00417116 -0.00628319 3.90624
29.795 0.241828 0.00500144 -0.00628319 3.91152
29.8 0.26971 0.00486665 -0.00628319 3.91262
29.805 0.261095 0.000796485 -0.00596903 3.91342
29.81 0.220673 -0.00378241 -0.00596903 3.91401
29.815 0.186004 -0.0044708 -0.00596903 3.92472
29.82 0.141356 -0.00702453 -0.00596903 3.91949
29.825 0.0804878 -0.0113013 -0.00596903 3.92871
29.83 0.0614701 -0.00787976 -0.00596903 3.93268
29.835 0.057505 -0.00651914 -0.00596903 3.92529
29.84 0.0689162 -0.00467925 -0.00596903 3.92265
29.845 0.0830365 -0.00394791 -0.00596903 3.92073
29.85 0.093848 -0.00393132 -0.00596903 3.91933
29.855 0.164927 0.00514789 -0.00596903 3.91831
29.86 0.166288 -0.0018349 -0.00596903 3.91757
29.865 0.240699 0.0085274 -0.00565487 3.91703
29.87 0.261008 0.00411984 -0.00565487 3.91663
29.875 0.209118 -0.00509876 -0.00565487 3.91634
29.88 0.197031 -0.00128644 -0.00565487 3.91614
29.885 0.152513 -0.00637871 -0.00565487 3.92627
29.89 0.155712 -0.00150053 -0.00534071 3.92062
29.895 0.168395 -0.000104797 -0.00534071 3.92954
29.9 0.198469 0.00318747 -0.00534071 3.923
29.905 0.169873 -0.003975 -0.00534071 3.93127
29.91 0.140965 -0.00506738 -0.00534071 3.93455
29.915 0.202118 0.00665015 -0.00534071 3.93694
29.92 0.1897 -0.00106115 -0.00534071 3.92839
29.925 0.246174 0.00792788 -0.00502655 3.9352
29.93 0.226459 -0.000328249 -0.00502655 3.93741
29.935 0.248655 0.00507708 -0.00502655 3.93902
29.94 0.256947 0.00428614 -0.00502655 3.94019
29.945 0.335155 0.0149133 -0.00502655 3.94105
29.95 0.340662 0.00788654 -0.00471239 3.94167
29.955 0.302525 0.00195164 -0.00439823 3.95241
29.96 0.274678 0.00231204 -0.00439823 3.9472
29.965 0.238706 0.00021882 -0.00439823 3.95644
29.97 0.197548 -0.00170563 -0.00439823 3.95014
29.975 0.094087 -0.0125836 -0.00408407 3.94829
29.98 0.0992267 -0.00156981 -0.00408407 3.94695
29.985 0.0727661 -0.00603535 -0.00408407 3.94597
29.99 0.0690956 -0.0041162 -0.00408407 3.94526
29.995 0.137623 0.00578686 -0.00408407 3.94474
30 0.125157 -0.00299906 -0.00408407 3.94436
30.005 0.131191 -0.000965798 -0.00408407 3.94408
30.01 0.120424 -0.00355524 -0.00376991 3.94388
30.015 0.156269 0.00241173 -0.00376991 3.95402
30.02 0.207738 0.00625452 -0.00376991 3.94838
30.025 0.182964 -0.00284633 -0.00345575 3.9573
30.03 0.1938 0.00136638 -0.00345575 3.95076
30.035 0.168007 -0.00335849 -0.00345575 3.94875
30.04 0.167258 -0.000850615 -0.00345575 3.94728
30.045 0.187181 0.00195369 -0.00345575 3.9565
30.05 0.14737 -0.00553296 -0.00345575 3.95018
30.055 0.194856 0.00517633 -0.00345575 3.94832
30.06 0.126299 -0.009325 -0.00345575 3.94697
30.065 0.178089 0.00475616 -0.00345575 3.95627
30.07 0.165829 -0.0021319 -0.00345575 3.9603
30.075 0.127075 -0.00630622 -0.00345575 3.95295
30.08 0.0983048 -0.00634149 -0.00376991 3.96063
30.085 0.00869751 -0.0162092 -0.00376991 3.95319
30.09 0.0546911 -0.000837299 -0.00408407 3.9608
30.095 0.0463083 -0.00675259 -0.00408407 3.95332
30.1 0.117882 0.00395575 -0.00408407 3.95061
30.105 0.113664 -0.00408896 -0.00408407 3.95892
30.11 0.0993021 -0.0056487 -0.00408407 3.95195
30.115 0.124615 -0.000907466 -0.00408407 3.9599
30.12 0.0566817 -0.0133845 -0.00376991 3.95266
30.125 0.103822 -0.000265174 -0.00376991 3.96041
30.13 0.0829145 -0.00804463 -0.00376991 3.96332
30.135 0.0851328 -0.00580682 -0.00376991 3.96544
30.14 0.0590441 -0.00976551 -0.00376991 3.95669
30.145 0.0785822 -0.00463148 -0.00376991 3.95307
30.15 0.053888 -0.0104169 -0.00376991 3.96071
30.155 0.0714067 -0.00550249 -0.00376991 3.95325
30.16 0.100314 -0.00338867 -0.00376991 3.95056
30.165 0.0810138 -0.00929288 -0.00376991 3.95889
30.17 0.0723503 -0.00832561 -0.00408407 3.96221
30.175 0.0156979 -0.0156371 -0.00408407 3.96462
30.18 0.0466619 -0.00552087 -0.00439823 3.96639
30.185 0.00691527 -0.0144594 -0.00439823 3.96767
30.19 0.0717227 -0.00127621 -0.00471239 3.96861
30.195 0.0740854 -0.00742364 -0.00471239 3.959
30.2 0.0892634 -0.00568141 -0.00471239 3.95475
30.205 0.0736816 -0.00915103 -0.00502655 3.95165
30.21 0.0694652 -0.00814769 -0.00502655 3.93911
30.215 0.111557 -0.00167256 -0.00534071 3.94301
30.22 0.128362 -0.00350741 -0.00534071 3.9431
30.225 0.0958344 -0.00994195 -0.00534071 3.95345
30.23 0.0816952 -0.00853002 -0.00534071 3.94796
30.235 0.0480425 -0.0121527 -0.00534071 3.95699
30.24 0.0477361 -0.00893114 -0.00534071 3.96083
30.245 0.0477892 -0.00905736 -0.00534071 3.96362
30.25 0.0385228 -0.0105348 -0.00534071 3.96566
30.255 0.0549523 -0.0072973 -0.00534071 3.95685
30.26 0.0463117 -0.0100003 -0.00565487 3.95318
30.265 0.0422998 -0.00948358 -0.00596903 3.95051
30.27 0.0925594 -0.00187636 -0.00596903 3.93828
30.275 0.134 -0.000936366 -0.00628319 3.9424
30.28 0.160678 -0.00118827 -0.00628319 3.94266
30.285 0.162966 -0.00354748 -0.00628319 3.95313
30.29 0.153131 -0.0045877 -0.00659734 3.95801
30.295 0.113779 -0.0088974 -0.00659734 3.95128
30.3 0.0952774 -0.00768789 -0.00659734 3.95941
30.305 0.0580288 -0.010687 -0.0069115 3.96259
30.31 0.0560254 -0.00716218 -0.0069115 3.95462
30.315 0.0782657 -0.00393857 -0.0069115 3.95156
30.32 0.0859624 -0.00496011 -0.0069115 3.93904
30.325 0.160593 0.00489283 -0.0069115 3.93267
30.33 0.190338 0.00172807 -0.0069115 3.92803
30.335 0.209467 0.00117409 -0.00659734 3.93493
30.34 0.215127 0.000516196 -0.00659734 3.92693
30.345 0.159847 -0.00821414 -0.00628319 3.93413
30.35 0.140082 -0.00522131 -0.00628319 3.93663
30.355 0.0647385 -0.0138851 -0.00628319 3.93846
30.36 0.0644457 -0.00636429 -0.00628319 3.93978
30.365 0.0804424 -0.00430629 -0.00628319 3.95104
30.37 0.131814 0.00154461 -0.00628319 3.9462
30.375 0.115422 -0.00582638 -0.00628319 3.93514
30.38 0.126692 -0.00254202 -0.00628319 3.92983
30.385 0.161215 0.00133499 -0.00628319 3.92596
30.39 0.19644 0.00286959 -0.00628319 3.93342
30.395 0.215142 0.00238295 -0.00628319 3.92583
30.4 0.221564 0.00152093 -0.00628319 3.93333
30.405 0.187307 -0.00369802 -0.00628319 3.93605
30.41 0.169116 -0.00296779 -0.00596903 3.93803
30.415 0.1488 -0.00386861 -0.00596903 3.93947
30.42 0.153217 -0.00120347 -0.00596903 3.95081
30.425 0.171013 0.00115783 -0.00596903 3.94604
30.43 0.212512 0.00502283 -0.00565487 3.94531
30.435 0.212889 0.00112186 -0.00565487 3.94477
30.44 0.147504 -0.00799576 -0.00565487 3.94438
30.445 0.146608 -0.00178712 -0.00534071 3.9441
30.45 0.165606 0.00107827 -0.00534071 3.9439
30.455 0.173684 0.000416859 -0.00534071 3.94375
30.46 0.166981 -0.00111805 -0.00534071 3.93335
30.465 0.163658 -0.000942499 -0.00534071 3.93881
30.47 0.230181 0.00867122 -0.00502655 3.94004
30.475 0.293224 0.011187 -0.00502655 3.94094
30.48 0.305116 0.00691065 -0.00502655 3.94159
30.485 0.265527 0.000134492 -0.00471239 3.94207
30.49 0.307927 0.0105394 -0.00471239 3.94241
30.495 0.262999 0.000260448 -0.00471239 3.94267
30.5 0.206658 -0.00290973 -0.00471239 3.94285
30.505 0.146602 -0.00560422 -0.00471239 3.94298
30.51 0.0355031 -0.0153664 -0.00471239 3.94308
30.515 0.0128015 -0.00752128 -0.00471239 3.93287
30.52 0.005373 -0.00676572 -0.00471239 3.93846
30.525 0.0472621 -0.000189729 -0.00471239 3.9295
30.53 0.0698847 -0.00163154 -0.00471239 3.936
30.535 0.1013 0.000195575 -0.00439823 3.92771
30.54 0.163941 0.00570406 -0.00439823 3.9347
30.545 0.183629 0.00236422 -0.00439823 3.92676
30.55 0.220396 0.00523472 -0.00408407 3.93401
30.555 0.263136 0.00784149 -0.00408407 3.93654
30.56 0.278348 0.00561502 -0.00376991 3.93839
30.565 0.22455 -0.00328162 -0.00376991 3.93974
30.57 0.17888 -0.00444748 -0.00345575 3.93043
30.575 0.158547 -0.00275004 -0.00345575 3.93668
30.58 0.164031 0.000141303 -0.00345575 3.93849
30.585 0.128564 -0.00546083 -0.00345575 3.93981
30.59 0.0938625 -0.00643727 -0.00376991 3.93048
30.595 0.0797068 -0.00484044 -0.00408407 3.93672
30.6 0.0861451 -0.00251019 -0.00408407 3.92823
30.605 0.0987845 -0.00129583 -0.00439823 3.93508
30.61 0.126729 0.00133569 -0.00439823 3.93732
30.615 0.170619 0.0047302 -0.00439823 3.93896
30.62 0.221502 0.00761661 -0.00439823 3.94015
30.625 0.218301 0.00219677 -0.00439823 3.94101
30.63 0.150781 -0.00692647 -0.00439823 3.94165
30.635 0.152411 -0.000190276 -0.00408407 3.94211
30.64 0.09002 -0.00931844 -0.00408407 3.95273
30.645 0.0528443 -0.00869216 -0.00376991 3.94744
30.65 -0.000507355 -0.0128199 -0.00376991 3.94632
30.655 -0.0517211 -0.0151057 -0.00376991 3.94551
30.66 -0.0529968 -0.0106119 -0.00376991 3.94493
30.665 -0.073101 -0.0138587 -0.00376991 3.9445
30.67 0.0414651 0.00433996 -0.00408407 3.94418
30.675 0.0420936 -0.0077904 -0.00376991 3.94396
30.68 0.114707 0.00226994 -0.00376991 3.94379
30.685 0.106285 -0.00646349 -0.00376991 3.95395
30.69 0.153445 0.0012055 -0.00376991 3.94833
30.695 0.172932 -0.000904174 -0.00376991 3.95726
30.7 0.14941 -0.00558143 -0.00408407 3.95074
30.705 0.107897 -0.00919217 -0.00408407 3.95901
30.71 0.0608537 -0.0116006 -0.00408407 3.95201
30.715 0.0886836 -0.00325329 -0.00408407 3.95995
30.72 0.034221 -0.0137247 -0.00408407 3.95269
30.725 -0.0199706 -0.0158501 -0.00439823 3.95016
30.73 -0.0337388 -0.012704 -0.00439823 3.94831
30.735 -0.120267 -0.0236755 -0.00471239 3.94696
30.74 -0.10742 -0.0133264 -0.00502655 3.94598
30.745 -0.0944065 -0.0131413 -0.00534071 3.95555
30.75 -0.0535685 -0.00891906 -0.00534071 3.94949
30.755 -0.0345765 -0.0106009 -0.00565487 3.95811
30.76 0.0203019 -0.00501346 -0.00565487 3.96164
30.765 0.0795828 -0.0019458 -0.00596903 3.96421
30.77 0.136366 0.000313474 -0.00596903 3.9558
30.775 0.141143 -0.00479955 -0.00596903 3.9627
30.78 0.147714 -0.00400607 -0.00596903 3.9547
30.785 0.114667 -0.00938042 -0.00596903 3.9619
30.79 0.0872416 -0.00945523 -0.00628319 3.9644
30.795 0.104242 -0.0042913 -0.00628319 3.96623
30.8 0.0813371 -0.00917723 -0.00628319 3.96755
30.805 0.0591535 -0.0100215 -0.00628319 3.96852
30.81 0.03982 -0.0104455 -0.00628319 3.95894
30.815 0.0576192 -0.00593361 -0.00659734 3.96499
30.82 0.0196749 -0.012852 -0.0069115 3.97694
30.825 0.0360431 -0.00632513 -0.00722566 3.97261
30.83 0.0897037 -0.000339577 -0.00722566 3.96192
30.835 0.0869267 -0.00591429 -0.00753982 3.96716
30.84 0.0882276 -0.00535686 -0.00753982 3.96823
30.845 0.135861 0.00129259 -0.00753982 3.96902
30.85 0.177232 0.00254225 -0.00753982 3.96959
30.855 0.235602 0.00692328 -0.00753982 3.97
30.86 0.299236 0.010494 -0.00753982 3.9703
30.865 0.284161 0.00259155 -0.00753982 3.97052
30.87 0.289012 0.00532636 -0.00753982 3.97068
30.875 0.215788 -0.00494275 -0.00753982 3.9708
30.88 0.0873918 -0.0153846 -0.00753982 3.97089
30.885 -0.0152803 -0.0169418 -0.00753982 3.96066
30.89 -0.101871 -0.0193082 -0.00753982 3.96625
30.895 -0.267631 -0.0341073 -0.00785398 3.96757
30.9 -0.401752 -0.0369632 -0.00816814 3.96853
30.905 -0.473654 -0.0350718 -0.00816814 3.97952
30.91 -0.528852 -0.0365876 -0.0084823 3.98478
30.915 -0.496262 -0.0270126 -0.00911062 3.97832
30.92 -0.533081 -0.0363777 -0.00973894 3.98665
30.925 -0.467243 -0.0240955 -0.0103673 3.98997
30.93 -0.425343 -0.024914 -0.0109956 3.98211
30.935 -0.335696 -0.0168886 -0.0116239 3.97912
30.94 -0.268066 -0.0163592 -0.0122522 3.97695
30.945 -0.284408 -0.0248807 -0.0131947 3.97536
30.95 -0.243963 -0.017335 -0.0141372 3.9845
30.955 -0.241091 -0.0205588 -0.0147655 3.9884
30.96 -0.193096 -0.0134177 -0.015708 3.99125
30.965 -0.206065 -0.019484 -0.0163363 3.99332
30.97 -0.196944 -0.0160684 -0.0172788 3.99483
30.975 -0.255866 -0.024656 -0.0179071 3.99593
30.98 -0.234389 -0.0150568 -0.0188496 3.99673
30.985 -0.218618 -0.014532 -0.0191637 3.98703
30.99 -0.20496 -0.0137386 -0.019792 3.98271
30.995 -0.365768 -0.0367371 -0.0207345 3.97956
31 -0.463186 -0.0338531 -0.021677 3.97727
