# Generated from ../data/13JUL2013/024.dat
time T_s gyro_x steer v
21 4.51059 0.1439 -0.0958186 0.949946
21.02 2.82214 -0.0394229 -0.0951903 0.950552
21.04 -4.51059 -0.057768 -0.098646 0.945976
21.06 1.23496 0.127933 -0.107128 0.947206
21.08 4.51059 0.11694 -0.105243 0.945033
21.1 -1.07676 -0.0870011 -0.0977035 0.949168
21.12 -3.68657 -0.00374113 -0.102102 0.950333
21.14 4.51059 0.135112 -0.100845 0.945914
21.16 4.51059 -0.0114059 -0.0964469 0.944669
21.18 -4.28102 -0.0693115 -0.092677 0.944319
21.2 0.313746 0.114976 -0.0955044 0.940762
21.22 4.51059 0.130057 -0.0901637 0.93976
21.24 0.567226 -0.0944278 -0.0775973 0.938189
21.26 -4.51059 -0.0513808 -0.0782257 0.937747
21.28 4.51059 0.138543 -0.0750841 0.932083
21.3 4.51059 0.0475721 -0.0694292 0.931549
21.32 -4.40058 -0.127617 -0.0609469 0.941686
21.34 -2.56523 0.0629239 -0.0600044 0.940959
21.36 4.51059 0.144602 -0.0537212 0.940755
21.38 2.88803 -0.107242 -0.0395841 0.939758
21.4 -4.51059 -0.0855235 -0.0358142 0.936958
21.42 3.52427 0.147839 -0.0326726 0.9374
21.44 4.51059 0.0791351 -0.0273319 0.934066
21.46 -2.86008 -0.141374 -0.0163363 0.926299
21.48 -4.51059 -0.0318272 -0.0135088 0.93546
21.5 4.51059 0.128424 -0.00722566 0.941725
21.52 4.51059 -0.035668 0.00439823 0.930684
21.54 -4.51059 -0.131594 0.0125664 0.941442
21.56 0.928929 0.12881 0.0113097 0.94341
21.58 4.51059 0.112926 0.0232478 0.941445
21.6 -2.29801 -0.212743 0.0424115 0.935206
21.62 -4.51059 -0.115577 0.0427257 0.935677
21.64 4.51059 0.137543 0.0480664 0.926754
21.66 4.51059 -0.0261616 0.0587478 0.93213
21.68 -4.51059 -0.137632 0.0675442 0.930502
21.7 -2.18049 0.0803807 0.0662876 0.936643
21.72 4.51059 0.112209 0.0750841 0.942058
21.74 -1.84634 -0.23131 0.090792 0.941064
21.76 -4.51059 -0.146415 0.0895354 0.943303
21.78 4.51059 0.164662 0.0914203 0.943934
21.8 4.51059 -0.0495366 0.102102 0.944111
21.82 -4.51059 -0.165628 0.109013 0.944161
21.84 -4.26512 0.0405824 0.106186 0.944175
21.86 4.51059 0.0978104 0.111527 0.944179
21.88 -2.5304 -0.257357 0.123465 0.941661
21.9 -4.51059 -0.181408 0.120951 0.943471
21.92 4.51059 0.171012 0.115296 0.943981
21.94 4.51059 -0.0443185 0.123779 0.944125
21.96 -4.51059 -0.167155 0.125035 0.954451
21.98 -4.51059 0.0153583 0.117496 0.956298
22 4.51059 0.085395 0.116867 0.946532
22.02 -4.14452 -0.265332 0.123779 0.944843
22.04 -4.51059 -0.173895 0.115296 0.944367
22.06 3.03215 0.149481 0.0999026 0.939482
22.08 4.19716 -0.0541437 0.103987 0.938104
22.1 -4.51059 -0.198071 0.0955044 0.932177
22.12 -4.51059 0.0344124 0.0785398 0.931569
22.14 4.51059 0.0929387 0.0703717 0.941684
22.16 -4.51059 -0.26834 0.0625177 0.943476
22.18 -4.51059 -0.119002 0.0471239 0.943982
22.2 2.7092 0.151936 0.0232478 0.948871
22.22 3.27682 -0.050014 0.0147655 0.950248
22.24 -4.51059 -0.167964 -0.00376991 0.945889
22.26 -4.51059 0.0768968 -0.0289027 0.944661
22.28 4.51059 0.114425 -0.0471239 0.944316
22.3 -4.51059 -0.184442 -0.0675442 0.944218
22.32 -4.51059 -0.0543079 -0.0914203 0.944191
22.34 4.14071 0.194173 -0.119695 0.954469
22.36 4.51059 0.00809874 -0.141058 0.946016
22.38 -4.51059 -0.0589738 -0.163363 0.944697
22.4 -2.72039 0.146856 -0.195093 0.944326
22.42 4.51059 0.207743 -0.217712 0.944221
22.44 -2.89328 -0.107431 -0.234991 0.939445
22.46 -4.51059 0.0107543 -0.264522 0.939388
22.48 4.51059 0.251698 -0.290911 0.932544
22.5 4.51059 0.099305 -0.312274 0.926931
22.52 -3.08262 0.0396627 -0.331752 0.940387
22.54 1.00582 0.226392 -0.353743 0.930312
22.56 4.51059 0.240719 -0.365996 0.941342
22.58 3.13032 0.0514609 -0.371022 0.937409
22.6 -1.32224 0.0829454 -0.378876 0.942279
22.62 4.51059 0.239866 -0.371965 0.9389
22.64 4.51059 0.100714 -0.364425 0.942694
22.66 -0.0697099 0.0548521 -0.354686 0.954049
22.68 3.76207 0.177544 -0.337721 0.945899
22.7 4.51059 0.153474 -0.316673 0.944665
22.72 2.96804 0.0207579 -0.286827 0.947776
22.74 1.51709 0.0598894 -0.257611 0.963685
22.76 4.51059 0.111064 -0.22431 0.958899
22.78 4.51059 -0.0053664 -0.187239 0.968275
22.8 0.413562 -0.0339805 -0.146084 0.970916
22.82 3.33477 0.0569232 -0.103358 0.97166
22.84 4.28072 -0.00261829 -0.0565487 0.982156
22.86 0.438515 -0.100242 -0.0084823 0.973764
22.88 -0.744051 -0.0737238 0.029531 0.969004
22.9 2.24093 -0.0491784 0.0716283 0.971121
22.92 1.4762 -0.113833 0.112155 0.974237
22.94 -2.16309 -0.154046 0.146398 0.96439
22.96 -1.22903 -0.098243 0.176243 0.969822
22.98 0.954169 -0.0987205 0.199491 0.97387
23 -1.471 -0.157349 0.218969 0.957459
23.02 -3.41628 -0.151335 0.229965 0.968932
23.04 -1.10123 -0.0928833 0.234677 0.97362
23.06 -1.2437 -0.12268 0.235305 0.962135
23.08 -3.38292 -0.135522 0.230907 0.970249
23.1 -2.76954 -0.0719438 0.216142 0.979677
23.12 -0.758167 -0.0541096 0.196664 0.974127
23.14 -2.20754 -0.0894462 0.178757 0.972564
23.16 -3.5782 -0.0745236 0.156765 0.987157
23.18 -1.20572 -0.00997372 0.128491 0.975172
23.2 -0.411508 -0.0167286 0.100217 0.969401
23.22 -2.67699 -0.0500343 0.0725708 0.981519
23.24 -2.35209 0.00460005 0.0405265 0.973584
23.26 0.705067 0.0586029 0.00785398 0.967664
23.28 -0.200499 0.0130015 -0.0150796 0.970744
23.3 -2.00421 0.0119896 -0.0439823 0.974131
23.32 -0.0475965 0.0838514 -0.0725708 0.967818
23.34 2.25852 0.0950035 -0.0939336 0.970788
23.36 0.204784 0.0361839 -0.111212 0.971624
23.38 -1.35313 0.0515315 -0.130376 0.956826
23.4 2.09096 0.124371 -0.141372 0.968753
23.42 2.86414 0.0874578 -0.14954 0.971051
23.44 -0.407236 0.0266311 -0.152996 0.953206
23.46 0.182503 0.0818416 -0.162106 0.967734
23.48 3.71739 0.119364 -0.158336 0.968244
23.5 2.41137 0.0380192 -0.148911 0.952416
23.52 -1.06732 0.0101544 -0.143257 0.967511
23.54 1.67498 0.102101 -0.136659 0.970702
23.56 4.51059 0.100138 -0.12158 0.963394
23.58 0.997043 -0.026175 -0.101159 0.969541
23.6 -1.99228 -0.0298651 -0.0860796 0.971273
23.62 2.89182 0.0840482 -0.0681726 0.967013
23.64 4.51059 0.0252113 -0.0477522 0.970561
23.66 -0.994384 -0.0858233 -0.0204204 0.974079
23.68 -1.40984 -0.000848708 -0.00502655 0.972551
23.7 4.30092 0.0555354 0.0172788 0.97212
23.72 2.78364 -0.059679 0.0424115 0.975457
23.74 -3.97996 -0.138605 0.0625177 0.957906
23.76 -0.615112 0.00440567 0.0738274 0.969057
23.78 4.51059 0.0225946 0.092677 0.967678
23.8 -0.894067 -0.153336 0.115296 0.955715
23.82 -4.51059 -0.129864 0.125035 0.965921
23.84 1.44224 0.04215 0.125978 0.967734
23.86 4.19056 -0.0456424 0.13823 0.952272
23.88 -4.51059 -0.198815 0.144199 0.967471
23.9 -4.51059 -0.0605192 0.146398 0.96817
23.92 3.49657 0.0384333 0.14577 0.962682
23.94 0.434562 -0.124054 0.147969 0.969342
23.96 -4.51059 -0.165611 0.142942 0.971217
23.98 -2.45818 0.0275279 0.129748 0.961021
24 4.25761 0.0350263 0.125664 0.958588
24.02 -4.51059 -0.217778 0.116867 0.958963
24.04 -4.51059 -0.109566 0.105872 0.95863
24.06 1.99018 0.0851379 0.0854513 0.963452
24.08 1.93128 -0.0503163 0.0757124 0.954524
24.1 -4.51059 -0.123685 0.0559203 0.962127
24.12 -4.51059 0.0337276 0.0320442 0.963207
24.14 3.73948 0.0844934 0.0128805 0.950997
24.16 -3.12008 -0.116182 -0.00628319 0.954306
24.18 -4.51059 -0.0509041 -0.033615 0.965524
24.2 2.42573 0.173913 -0.0672301 0.959416
24.22 3.53364 0.0394994 -0.0863938 0.953388
24.24 -4.51059 -0.0877773 -0.109956 0.952751
24.26 -4.31012 0.0793595 -0.140115 0.961628
24.28 4.51059 0.193366 -0.167761 0.958319
24.3 0.6689 -0.0236864 -0.185982 0.947101
24.32 -4.51059 0.00310864 -0.212686 0.953209
24.34 3.24291 0.247477 -0.238133 0.954929
24.36 4.51059 0.167666 -0.259496 0.957494
24.38 -1.84653 -0.015559 -0.27269 0.957148
24.4 -2.25373 0.0927704 -0.288084 0.946765
24.42 4.51059 0.229927 -0.295624 0.949649
24.44 4.51059 0.0764958 -0.297509 0.950462
24.46 -0.644761 0.0817547 -0.299394 0.956232
24.48 3.72548 0.197313 -0.29154 0.959318
24.5 4.51059 0.135425 -0.281173 0.949901
24.52 0.498034 -0.0121932 -0.262009 0.960825
24.54 0.584918 0.0804964 -0.252898 0.962839
24.56 4.51059 0.157 -0.229336 0.950893
24.58 4.085 0.021726 -0.200748 0.956795
24.6 -0.507158 0.015855 -0.174987 0.968744
24.62 4.05654 0.110488 -0.142942 0.960323
24.64 4.51059 0.0413282 -0.111212 0.953642
24.66 0.0381923 -0.0728469 -0.0728849 0.957569
24.68 -0.180218 -0.0124177 -0.0420973 0.962984
24.7 4.04219 0.0290449 -0.00345575 0.958701
24.72 1.7366 -0.0936805 0.0370708 0.949727
24.74 -1.99349 -0.100568 0.071 0.964234
24.76 1.26345 -0.0192694 0.102102 0.9638
24.78 2.81792 -0.0669766 0.138544 0.95893
24.8 -1.83668 -0.16391 0.171845 0.95325
24.82 -2.32815 -0.109788 0.191951 0.952712
24.84 0.754171 -0.0804359 0.212372 0.956874
24.86 -1.16283 -0.149693 0.232164 0.956986
24.88 -4.08573 -0.145389 0.239389 0.94925
24.9 -0.829333 -0.0614534 0.240646 0.953819
24.92 0.243969 -0.0951147 0.243473 0.955106
24.94 -3.97853 -0.160438 0.242531 0.957545
24.96 -3.8689 -0.0850043 0.230907 0.952861
24.98 0.242203 -0.0285155 0.213628 0.95735
25 -1.73287 -0.104911 0.201062 0.962924
25.02 -4.51059 -0.0979412 0.182841 0.965951
25.04 -1.15288 0.0247239 0.156137 0.955228
25.06 0.960511 -0.00719013 0.136345 0.965784
25.08 -3.30024 -0.0716158 0.108385 0.966756
25.1 -3.98935 -0.000175542 0.0785398 0.951997
25.12 1.70416 0.085186 0.049323 0.967393
25.14 0.356032 -0.0054904 0.0267035 0.968149
25.16 -4.22111 -0.0256539 -0.00188496 0.94987
25.18 -0.372157 0.107154 -0.0326726 0.956508
25.2 3.66399 0.104967 -0.0540354 0.958378
25.22 -0.921172 -0.0107173 -0.0716283 0.958466
25.24 -2.71019 0.0464882 -0.0942478 0.963406
25.26 3.48044 0.16534 -0.108699 0.969545
25.28 2.90303 0.0537413 -0.117181 0.965296
25.3 -2.98186 -0.0198773 -0.128491 0.974824
25.32 0.805649 0.130341 -0.137916 0.962474
25.34 4.51059 0.132785 -0.136659 0.967825
25.36 0.231749 -0.00949454 -0.130062 0.966042
25.38 -2.18278 0.0449607 -0.130062 0.955254
25.4 4.43806 0.156673 -0.123779 0.962334
25.42 4.51059 0.0495705 -0.11404 0.965785
25.44 -2.28938 -0.0462369 -0.103673 0.955181
25.46 0.754855 0.091834 -0.0939336 0.965771
25.48 4.51059 0.108507 -0.0750841 0.970211
25.5 1.42975 -0.0492498 -0.0521504 0.956428
25.52 -2.58817 -0.0356873 -0.037385 0.968641
25.54 3.22624 0.0723162 -0.0185354 0.971019
25.56 4.51059 0.00470106 0.00125664 0.953198
25.58 -2.42443 -0.123388 0.0241903 0.957445
25.6 -1.52081 -0.00384847 0.0436681 0.966408
25.62 4.51059 0.0642547 0.065031 0.94938
25.64 1.7009 -0.100338 0.0904779 0.95637
25.66 -4.29236 -0.115851 0.108071 0.958339
25.68 0.669562 0.0268663 0.118438 0.963202
25.7 4.51059 -0.000638284 0.138544 0.96474
25.72 -2.58851 -0.184891 0.162106 0.959634
25.74 -4.51059 -0.13422 0.171531 0.963567
25.76 2.63582 0.0415108 0.173102 0.96959
25.78 2.99385 -0.0791337 0.186925 0.961
25.8 -4.51059 -0.191176 0.193522 0.96741
25.82 -4.51059 -0.0431332 0.193522 0.970672
25.84 3.9164 0.0333173 0.19415 0.971591
25.86 -1.50674 -0.1973 0.197292 0.969331
25.88 -4.51059 -0.197083 0.189124 0.975961
25.9 -1.46931 0.0298765 0.171531 0.973081
25.92 3.7748 0.0150281 0.165562 0.97227
25.94 -4.51059 -0.205045 0.152996 0.982327
25.96 -4.51059 -0.073211 0.140429 0.973812
25.98 1.68902 0.0683424 0.11781 0.972475
26 1.15211 -0.0805692 0.106186 0.972099
