# Generated from ../data/13JUL2013/024.dat
time T_s gyro_x steer v
21 4.51059 0.1439 -0.0958186 0.949946
21.005 4.51059 0.127155 -0.0970752 0.948379
21.01 4.51059 0.0861203 -0.0977035 0.947241
21.015 4.51059 0.033003 -0.0967611 0.956695
21.02 2.82214 -0.0394229 -0.0951903 0.950552
21.025 0.314727 -0.0684994 -0.0942478 0.948821
21.03 -1.85199 -0.0833076 -0.0951903 0.947562
21.035 -4.03673 -0.107236 -0.098646 0.946643
21.04 -4.51059 -0.057768 -0.098646 0.945976
21.045 -4.33816 -0.0313805 -0.0999026 0.955773
21.05 -3.34475 0.0134036 -0.102102 0.949881
21.055 -1.52071 0.0638541 -0.104929 0.948332
21.06 1.23496 0.127933 -0.107128 0.947206
21.065 3.7914 0.150395 -0.103987 0.946383
21.07 4.51059 0.143134 -0.103987 0.945787
21.075 4.51059 0.131073 -0.104929 0.945349
21.08 4.51059 0.11694 -0.105243 0.945033
21.085 4.51059 0.0620345 -0.103987 0.944801
21.09 4.23131 -0.0236313 -0.101788 0.944634
21.095 1.44899 -0.0613281 -0.098646 0.954796
21.1 -1.07676 -0.0870011 -0.0977035 0.949168
21.105 -3.4609 -0.108339 -0.101473 0.947813
21.11 -4.07981 -0.0574592 -0.101159 0.946828
21.115 -4.36585 -0.0500843 -0.100845 0.956394
21.12 -3.68657 -0.00374113 -0.102102 0.950333
21.125 -1.85911 0.056883 -0.103987 0.948662
21.13 0.936 0.122683 -0.105558 0.947446
21.135 3.68395 0.152177 -0.101473 0.946558
21.14 4.51059 0.135112 -0.100845 0.945914
21.145 4.51059 0.133475 -0.101473 0.945442
21.15 4.51059 0.120416 -0.101159 0.945101
21.155 4.51059 0.0780979 -0.0992743 0.94485
21.16 4.51059 -0.0114059 -0.0964469 0.944669
21.165 2.10877 -0.0653501 -0.0923628 0.944536
21.17 -0.714184 -0.0952059 -0.090792 0.94444
21.175 -3.51634 -0.126536 -0.0933053 0.944369
21.18 -4.28102 -0.0693115 -0.092677 0.944319
21.185 -4.51059 -0.0660261 -0.0923628 0.94428
21.19 -4.51059 -0.0289675 -0.092677 0.933968
21.195 -2.63522 0.0446245 -0.0942478 0.939486
21.2 0.313746 0.114976 -0.0955044 0.940762
21.205 3.14906 0.144409 -0.0917345 0.941689
21.21 4.51059 0.147713 -0.0901637 0.932081
21.215 4.51059 0.14713 -0.0904779 0.938111
21.22 4.51059 0.130057 -0.0901637 0.93976
21.225 4.51059 0.10652 -0.0882788 0.940959
21.23 4.51059 0.0159206 -0.0854513 0.941835
21.235 3.8009 -0.0566969 -0.0816814 0.932185
21.24 0.567226 -0.0944278 -0.0775973 0.938189
21.245 -2.99664 -0.148905 -0.0772832 0.939815
21.25 -4.16664 -0.0852838 -0.0807389 0.941001
21.255 -4.40367 -0.054113 -0.0782257 0.931577
21.26 -4.51059 -0.0513808 -0.0782257 0.937747
21.265 -3.77523 -0.0106466 -0.0794823 0.939493
21.27 -0.6966 0.102131 -0.0810531 0.940767
21.275 2.79221 0.157529 -0.0807389 0.941692
21.28 4.51059 0.138543 -0.0750841 0.932083
21.285 4.51059 0.153317 -0.0750841 0.938113
21.29 4.51059 0.121948 -0.0747699 0.939762
21.295 4.51059 0.117452 -0.0722566 0.94096
21.3 4.51059 0.0475721 -0.0694292 0.931549
21.305 4.51059 -0.0447086 -0.065031 0.937724
21.31 1.55828 -0.0961423 -0.0600044 0.939479
21.315 -2.17908 -0.150962 -0.057177 0.940754
21.32 -4.40058 -0.127617 -0.0609469 0.941686
21.325 -4.51059 -0.0867112 -0.0587478 0.932076
21.33 -4.51059 -0.0631354 -0.0578053 0.93811
21.335 -4.51059 -0.0551843 -0.0581195 0.939757
21.34 -2.56523 0.0629239 -0.0600044 0.940959
21.345 1.22668 0.142726 -0.0612611 0.931547
21.35 4.51059 0.165166 -0.0556062 0.937724
21.355 4.51059 0.160388 -0.0540354 0.939476
21.36 4.51059 0.144602 -0.0537212 0.940755
21.365 4.51059 0.121983 -0.0521504 0.941684
21.37 4.51059 0.0645668 -0.0490088 0.932077
21.375 4.51059 -0.00482223 -0.0446106 0.938108
21.38 2.88803 -0.107242 -0.0395841 0.939758
21.385 -1.22757 -0.156439 -0.0355 0.930672
21.39 -3.96196 -0.141574 -0.0389557 0.926801
21.395 -4.51059 -0.105196 -0.0380133 0.934265
21.4 -4.51059 -0.0855235 -0.0358142 0.936958
21.405 -4.51059 -0.0705188 -0.0361283 0.938918
21.41 -3.807 0.0207321 -0.0367566 0.940348
21.415 0.208574 0.132593 -0.0389557 0.931101
21.42 3.52427 0.147839 -0.0326726 0.9374
21.425 4.51059 0.169861 -0.0307876 0.93924
21.43 4.51059 0.132796 -0.0314159 0.930296
21.435 4.51059 0.155672 -0.029531 0.926525
21.44 4.51059 0.0791351 -0.0273319 0.934066
21.445 4.51059 0.0100843 -0.0238761 0.936811
21.45 4.51059 -0.0533127 -0.0191637 0.938814
21.455 0.0955388 -0.175295 -0.0141372 0.929983
21.46 -2.86008 -0.141374 -0.0163363 0.926299
21.465 -4.49781 -0.118777 -0.0160221 0.9339
21.47 -4.51059 -0.105203 -0.013823 0.936692
21.475 -4.51059 -0.07967 -0.0128805 0.928438
21.48 -4.51059 -0.0318272 -0.0135088 0.93546
21.485 -1.33006 0.0922959 -0.0150796 0.937827
21.49 2.45358 0.146369 -0.0141372 0.939553
21.495 4.51059 0.166361 -0.00785398 0.940808
21.5 4.51059 0.128424 -0.00722566 0.941725
21.505 4.51059 0.136742 -0.00659734 0.932105
21.51 4.51059 0.105453 -0.00376991 0.938131
21.515 4.51059 0.0293423 -0.000314159 0.939772
21.52 4.51059 -0.035668 0.00439823 0.930684
21.525 1.18424 -0.168593 0.0100531 0.937094
21.53 -2.52992 -0.169255 0.0128805 0.939019
21.535 -4.31207 -0.127991 0.00973894 0.940419
21.54 -4.51059 -0.131594 0.0125664 0.941442
21.545 -4.51059 -0.120534 0.013823 0.942184
21.55 -4.51059 -0.0657044 0.0135088 0.942728
21.555 -3.05418 0.0613604 0.0122522 0.943121
21.56 0.928929 0.12881 0.0113097 0.94341
21.565 4.51059 0.167399 0.0175929 0.933332
21.57 4.51059 0.141527 0.0201062 0.939025
21.575 4.51059 0.136135 0.0207345 0.940424
21.58 4.51059 0.112926 0.0232478 0.941445
21.585 4.51059 0.0353108 0.0273319 0.942186
21.59 4.51059 -0.029827 0.0323584 0.932442
21.595 2.73015 -0.134642 0.0380133 0.928089
21.6 -2.29801 -0.212743 0.0424115 0.935206
21.605 -4.51059 -0.155631 0.0380133 0.927356
21.61 -4.51059 -0.140993 0.0408407 0.924385
21.615 -4.51059 -0.145189 0.0427257 0.932506
21.62 -4.51059 -0.115577 0.0427257 0.935677
21.625 -4.51059 0.0168544 0.0427257 0.937986
21.63 -1.15607 0.0959845 0.0402124 0.939669
21.635 2.90227 0.145204 0.041469 0.930607
21.64 4.51059 0.137543 0.0480664 0.926754
21.645 4.51059 0.116158 0.0483805 0.934232
21.65 4.51059 0.124569 0.0508938 0.926648
21.655 4.51059 0.0541827 0.0543496 0.923868
21.66 4.51059 -0.0261616 0.0587478 0.93213
21.665 3.04856 -0.129028 0.0640885 0.935402
21.67 -2.43779 -0.236207 0.0688009 0.937786
21.675 -4.51059 -0.179822 0.0640885 0.939522
21.68 -4.51059 -0.137632 0.0675442 0.930502
21.685 -4.51059 -0.154741 0.069115 0.936963
21.69 -4.51059 -0.137965 0.0694292 0.938922
21.695 -4.51059 -0.0116274 0.0684867 0.930064
21.7 -2.18049 0.0803807 0.0662876 0.936643
21.705 2.26307 0.145239 0.0662876 0.93869
21.71 4.51059 0.156764 0.0722566 0.940181
21.715 4.51059 0.0987219 0.0741416 0.941267
21.72 4.51059 0.112209 0.0750841 0.942058
21.725 4.51059 0.057257 0.0772832 0.932348
21.73 4.51059 -0.0283904 0.0813672 0.938307
21.735 3.51176 -0.11255 0.0863938 0.939902
21.74 -1.84634 -0.23131 0.090792 0.941064
21.745 -4.51059 -0.196918 0.0860796 0.94191
21.75 -4.51059 -0.152908 0.0882788 0.942527
21.755 -4.51059 -0.159686 0.0898495 0.942976
21.76 -4.51059 -0.146415 0.0895354 0.943303
21.765 -4.51059 -0.0145815 0.0885929 0.943541
21.77 -2.33528 0.070152 0.0860796 0.943715
21.775 1.86245 0.129191 0.0854513 0.943842
21.78 4.51059 0.164662 0.0914203 0.943934
21.785 4.51059 0.0875765 0.0933053 0.944001
21.79 4.51059 0.118347 0.0948761 0.94405
21.795 4.51059 0.0554689 0.0977035 0.944085
21.8 4.51059 -0.0495366 0.102102 0.944111
21.805 3.0241 -0.129956 0.107442 0.94413
21.81 -2.35824 -0.24405 0.111212 0.944144
21.815 -4.51059 -0.224761 0.106186 0.944154
21.82 -4.51059 -0.165628 0.109013 0.944161
21.825 -4.51059 -0.196934 0.11027 0.944167
21.83 -4.51059 -0.174275 0.11027 0.944171
21.835 -4.51059 -0.0342839 0.109013 0.944173
21.84 -4.26512 0.0405824 0.106186 0.944175
21.845 0.512296 0.126379 0.103673 0.944177
21.85 4.51059 0.170465 0.109327 0.944178
21.855 4.51059 0.0705936 0.112469 0.944179
21.86 4.51059 0.0978104 0.111527 0.944179
21.865 4.51059 0.079027 0.113097 0.933894
21.87 4.51059 -0.0462732 0.115925 0.939433
21.875 3.13715 -0.126882 0.120323 0.940722
21.88 -2.5304 -0.257357 0.123465 0.941661
21.885 -4.51059 -0.236389 0.117496 0.942345
21.89 -4.51059 -0.147965 0.120951 0.942844
21.895 -4.51059 -0.195178 0.121265 0.943207
21.9 -4.51059 -0.181408 0.120951 0.943471
21.905 -4.51059 -0.0609754 0.119066 0.943664
21.91 -4.51059 0.0292927 0.116553 0.943804
21.915 -0.145321 0.114956 0.113411 0.943907
21.92 4.51059 0.171012 0.115296 0.943981
21.925 4.51059 0.0731453 0.120951 0.944035
21.93 4.51059 0.0820314 0.119066 0.944075
21.935 4.51059 0.0602099 0.120637 0.944104
21.94 4.51059 -0.0443185 0.123779 0.944125
21.945 2.3017 -0.14321 0.127549 0.94414
21.95 -2.91144 -0.249779 0.129434 0.944151
21.955 -4.51059 -0.254617 0.122836 0.944159
21.96 -4.51059 -0.167155 0.125035 0.954451
21.965 -4.51059 -0.215957 0.124721 0.948916
21.97 -4.51059 -0.188882 0.12315 0.947631
21.975 -4.51059 -0.0612623 0.120637 0.946694
21.98 -4.51059 0.0153583 0.117496 0.956298
21.985 -1.29231 0.101274 0.113726 0.950262
21.99 3.3878 0.15672 0.112155 0.948611
21.995 4.51059 0.0760438 0.117496 0.947408
22 4.51059 0.085395 0.116867 0.946532
22.005 4.51059 0.0379804 0.11781 0.945894
22.01 4.51059 -0.058099 0.120323 0.945428
22.015 1.14447 -0.151086 0.123779 0.94509
22.02 -4.14452 -0.265332 0.123779 0.944843
22.025 -4.51059 -0.238553 0.117181 0.944663
22.03 -4.51059 -0.202345 0.119381 0.944532
22.035 -4.51059 -0.233245 0.118124 0.944437
22.04 -4.51059 -0.173895 0.115296 0.944367
22.045 -4.51059 -0.061415 0.111841 0.944317
22.05 -4.51059 0.0324834 0.107128 0.94428
22.055 -1.54653 0.107486 0.102416 0.933964
22.06 3.03215 0.149481 0.0999026 0.939482
22.065 4.51059 0.0819857 0.104615 0.940756
22.07 4.51059 0.0846597 0.103358 0.941683
22.075 4.51059 0.0182565 0.10273 0.932073
22.08 4.19716 -0.0541437 0.103987 0.938104
22.085 -0.126203 -0.179894 0.105558 0.939752
22.09 -4.51059 -0.263276 0.0989602 0.940952
22.095 -4.51059 -0.226965 0.0958186 0.941827
22.1 -4.51059 -0.198071 0.0955044 0.932177
22.105 -4.51059 -0.233158 0.0929911 0.938181
22.11 -4.51059 -0.151519 0.0889071 0.939807
22.115 -4.51059 -0.0387346 0.0838805 0.940993
22.12 -4.51059 0.0344124 0.0785398 0.931569
22.125 -1.56294 0.116439 0.0728849 0.937738
22.13 2.72844 0.146128 0.0700575 0.939484
22.135 4.51059 0.0924668 0.0725708 0.940758
22.14 4.51059 0.0929387 0.0703717 0.941684
22.145 4.51059 0.0282238 0.069115 0.94236
22.15 3.52717 -0.0655671 0.0688009 0.942854
22.155 -0.107158 -0.147581 0.0684867 0.943215
22.16 -4.51059 -0.26834 0.0625177 0.943476
22.165 -4.51059 -0.212309 0.057177 0.943669
22.17 -4.51059 -0.163427 0.0562345 0.943807
22.175 -4.51059 -0.224091 0.0521504 0.943909
22.18 -4.51059 -0.119002 0.0471239 0.943982
22.185 -4.51059 -0.0310491 0.0411549 0.944037
22.19 -4.51059 0.038077 0.0342434 0.944075
22.195 -1.21372 0.139994 0.0273319 0.954391
22.2 2.7092 0.151936 0.0232478 0.948871
22.205 4.51059 0.114465 0.0238761 0.947599
22.21 4.51059 0.101224 0.0204204 0.94667
22.215 4.51059 0.0353666 0.0166504 0.956281
22.22 3.27682 -0.050014 0.0147655 0.950248
22.225 -0.494334 -0.140068 0.0122522 0.948602
22.23 -4.51059 -0.230343 0.00376991 0.947401
22.235 -4.51059 -0.176023 -0.000628319 0.946528
22.24 -4.51059 -0.167964 -0.00376991 0.945889
22.245 -4.51059 -0.171313 -0.00816814 0.945426
22.25 -4.51059 -0.0947587 -0.0144513 0.945087
22.255 -4.51059 -0.0140289 -0.0213628 0.944842
22.26 -4.51059 0.0768968 -0.0289027 0.944661
22.265 -0.778911 0.154731 -0.037385 0.944532
22.27 3.20458 0.179146 -0.041469 0.944435
22.275 4.51059 0.138266 -0.0417832 0.944368
22.28 4.51059 0.114425 -0.0471239 0.944316
22.285 4.51059 0.0627977 -0.0515221 0.94428
22.29 3.45419 -0.0292473 -0.0549779 0.944252
22.295 -0.502065 -0.122485 -0.0581195 0.944234
22.3 -4.51059 -0.184442 -0.0675442 0.944218
22.305 -4.51059 -0.136109 -0.0738274 0.944209
22.31 -4.51059 -0.106784 -0.0779115 0.9442
22.315 -4.51059 -0.13507 -0.0841947 0.944196
22.32 -4.51059 -0.0543079 -0.0914203 0.944191
22.325 -4.51059 0.0268893 -0.0999026 0.944189
22.33 -3.80791 0.119551 -0.109642 0.944186
22.335 0.842068 0.197711 -0.118752 0.944186
22.34 4.14071 0.194173 -0.119695 0.954469
22.345 4.51059 0.152121 -0.124721 0.948931
22.35 4.51059 0.157248 -0.131947 0.94764
22.355 4.51059 0.114422 -0.137288 0.946702
22.36 4.51059 0.00809874 -0.141058 0.946016
22.365 0.682825 -0.0795997 -0.142942 0.945519
22.37 -3.79281 -0.15006 -0.149226 0.945154
22.375 -4.51059 -0.113683 -0.160221 0.944891
22.38 -4.51059 -0.0589738 -0.163363 0.944697
22.385 -4.51059 -0.0997862 -0.169646 0.944558
22.39 -4.51059 -0.0323481 -0.176558 0.944455
22.395 -4.51059 0.0839129 -0.185354 0.944381
22.4 -2.72039 0.146856 -0.195093 0.944326
22.405 1.69217 0.227063 -0.203889 0.944288
22.41 4.14712 0.1946 -0.205774 0.944257
22.415 4.51059 0.181994 -0.211429 0.944238
22.42 4.51059 0.207743 -0.217712 0.944221
22.425 4.51059 0.147157 -0.223367 0.944211
22.43 4.51059 0.0404771 -0.227137 0.944202
22.435 1.42979 -0.0427987 -0.22965 0.933911
22.44 -2.89328 -0.107431 -0.234991 0.939445
22.445 -4.51059 -0.0543031 -0.245673 0.940732
22.45 -4.51059 -0.00628648 -0.251642 0.931381
22.455 -4.51059 -0.0518348 -0.257296 0.937604
22.46 -4.51059 0.0107543 -0.264522 0.939388
22.465 -4.51059 0.105636 -0.273004 0.940691
22.47 -1.23779 0.190418 -0.283057 0.941637
22.475 2.65485 0.24909 -0.289969 0.942329
22.48 4.51059 0.251698 -0.290911 0.932544
22.485 4.51059 0.215647 -0.297509 0.938451
22.49 4.51059 0.232301 -0.303792 0.940006
22.495 4.51059 0.209028 -0.308819 0.930854
22.5 4.51059 0.099305 -0.312274 0.926931
22.505 3.99337 0.0228039 -0.314473 0.934362
22.51 -0.314601 -0.0502296 -0.316044 0.937027
22.515 -2.54646 -0.0101212 -0.325783 0.93897
22.52 -3.08262 0.0396627 -0.331752 0.940387
22.525 -3.98891 0.0260565 -0.335208 0.931133
22.53 -3.91649 0.0550312 -0.340863 0.937424
22.535 -2.25771 0.130699 -0.34746 0.939261
22.54 1.00582 0.226392 -0.353743 0.930312
22.545 3.88626 0.243446 -0.352801 0.936826
22.55 4.51059 0.275733 -0.355628 0.938825
22.555 4.51059 0.268428 -0.361597 0.940281
22.56 4.51059 0.240719 -0.365996 0.941342
22.565 4.51059 0.233084 -0.368823 0.931828
22.57 4.51059 0.113836 -0.370708 0.927644
22.575 4.51059 0.0680724 -0.371336 0.934883
22.58 3.13032 0.0514609 -0.371022 0.937409
22.585 0.284571 0.0119095 -0.370394 0.93925
22.59 -0.642135 0.0620172 -0.376991 0.940591
22.595 -1.25499 0.0653485 -0.377934 0.941568
22.6 -1.32224 0.0829454 -0.378876 0.942279
22.605 0.0973338 0.147665 -0.379504 0.942797
22.61 2.53131 0.207864 -0.376991 0.943175
22.615 4.51059 0.215465 -0.372907 0.933161
22.62 4.51059 0.239866 -0.371965 0.9389
22.625 4.51059 0.230978 -0.371336 0.940333
22.63 4.51059 0.191984 -0.37008 0.941379
22.635 4.51059 0.17244 -0.367566 0.942138
22.64 4.51059 0.100714 -0.364425 0.942694
22.645 4.51059 0.0665739 -0.360969 0.943097
22.65 2.95281 0.0511152 -0.356257 0.943392
22.655 0.534279 0.00548943 -0.352801 0.943605
22.66 -0.0697099 0.0548521 -0.354686 0.954049
22.665 0.426984 0.0956538 -0.351544 0.948622
22.67 0.749794 0.0920118 -0.344947 0.947417
22.675 1.76148 0.124795 -0.342119 0.946537
22.68 3.76207 0.177544 -0.337721 0.945899
22.685 4.51059 0.191921 -0.331752 0.945431
22.69 4.51059 0.206034 -0.327354 0.945093
22.695 4.51059 0.180997 -0.322013 0.944844
22.7 4.51059 0.153474 -0.316673 0.944665
22.705 4.51059 0.104278 -0.310075 0.944532
22.71 4.51059 0.0453568 -0.303164 0.954724
22.715 4.51059 0.0513067 -0.29531 0.949114
22.72 2.96804 0.0207579 -0.286827 0.947776
22.725 1.08809 -0.0114787 -0.279288 0.946799
22.73 0.684417 0.0296367 -0.273319 0.956375
22.735 1.13095 0.0592963 -0.26515 0.960603
22.74 1.51709 0.0598894 -0.257611 0.963685
22.745 2.49775 0.0858398 -0.250071 0.955642
22.75 4.344 0.132296 -0.241903 0.952531
22.755 4.51059 0.137954 -0.232478 0.950263
22.76 4.51059 0.111064 -0.22431 0.958899
22.765 4.51059 0.109097 -0.216142 0.962441
22.77 4.51059 0.0839418 -0.207031 0.965025
22.775 4.51059 0.0349788 -0.197606 0.966904
22.78 4.51059 -0.0053664 -0.187239 0.968275
22.785 3.66898 0.00349896 -0.176558 0.969272
22.79 2.27589 -0.0319474 -0.165562 0.970001
22.795 0.959221 -0.0493742 -0.156137 0.970529
22.8 0.413562 -0.0339805 -0.146084 0.970916
22.805 0.685371 -0.00669674 -0.135403 0.971196
22.81 1.03253 -0.00256266 -0.125035 0.971402
22.815 1.82897 0.0189002 -0.114354 0.97155
22.82 3.33477 0.0569232 -0.103358 0.97166
22.825 3.64381 0.0168195 -0.090792 0.971738
22.83 4.00415 0.0182291 -0.0804248 0.971797
22.835 4.51059 0.0240031 -0.0688009 0.971837
22.84 4.28072 -0.00261829 -0.0565487 0.982156
22.845 3.47086 -0.0454217 -0.0442965 0.976637
22.85 2.34576 -0.0728155 -0.0320442 0.975366
22.855 1.45215 -0.0802347 -0.0207345 0.974438
22.86 0.438515 -0.100242 -0.0084823 0.973764
22.865 -0.68907 -0.120449 0.00282743 0.97327
22.87 -1.21271 -0.110679 0.00911062 0.962627
22.875 -1.14751 -0.0877755 0.019792 0.967904
22.88 -0.744051 -0.0737238 0.029531 0.969004
22.885 0.241799 -0.043968 0.0392699 0.969803
22.89 1.38806 -0.0263468 0.0483805 0.970387
22.895 1.90504 -0.0444624 0.0625177 0.97081
22.9 2.24093 -0.0491784 0.0716283 0.971121
22.905 2.817 -0.0320666 0.0810531 0.981632
22.91 3.02445 -0.0528149 0.0914203 0.976258
22.915 2.36174 -0.0919347 0.101788 0.975087
22.92 1.4762 -0.113833 0.112155 0.974237
22.925 0.16618 -0.146809 0.122208 0.973615
22.93 -0.652487 -0.146822 0.132261 0.962878
22.935 -1.55091 -0.158846 0.139173 0.957801
22.94 -2.16309 -0.154046 0.146398 0.96439
22.945 -2.18717 -0.136569 0.155509 0.966442
22.95 -2.3217 -0.141535 0.163363 0.967939
22.955 -1.97905 -0.121225 0.16996 0.969027
22.96 -1.22903 -0.098243 0.176243 0.969822
22.965 -0.405209 -0.0822953 0.181898 0.980685
22.97 0.538598 -0.0711415 0.187553 0.975568
22.975 0.955656 -0.0834065 0.193208 0.974585
22.98 0.954169 -0.0987205 0.199491 0.97387
22.985 0.509389 -0.120127 0.205146 0.973348
22.99 -0.127677 -0.135153 0.209858 0.97297
22.995 -0.71111 -0.144028 0.214571 0.962406
23 -1.471 -0.157349 0.218969 0.957459
23.005 -2.46613 -0.173625 0.221168 0.964139
23.01 -3.08769 -0.168684 0.224938 0.966261
23.015 -3.31795 -0.156831 0.227765 0.967805
23.02 -3.41628 -0.151335 0.229965 0.968932
23.025 -3.26239 -0.13804 0.231535 0.980036
23.03 -2.49525 -0.106499 0.232478 0.975096
23.035 -1.64337 -0.0910233 0.233734 0.974241
23.04 -1.10123 -0.0928833 0.234677 0.97362
23.045 -0.907054 -0.100508 0.234991 0.973166
23.05 -0.795891 -0.100717 0.235305 0.972837
23.055 -0.811711 -0.103933 0.235305 0.972595
23.06 -1.2437 -0.12268 0.235305 0.962135
23.065 -1.79476 -0.130499 0.234991 0.967545
23.07 -2.44074 -0.139891 0.234363 0.968743
23.075 -3.05508 -0.14386 0.232792 0.969614
23.08 -3.38292 -0.135522 0.230907 0.970249
23.085 -3.85923 -0.142667 0.228394 0.97071
23.09 -3.89924 -0.126338 0.224938 0.981334
23.095 -3.63743 -0.108441 0.22054 0.986325
23.1 -2.76954 -0.0719438 0.216142 0.979677
23.105 -1.76654 -0.0519362 0.211115 0.977578
23.11 -1.3468 -0.0629725 0.206403 0.976052
23.115 -1.07444 -0.0617753 0.201376 0.974937
23.12 -0.758167 -0.0541096 0.196664 0.974127
23.125 -0.77135 -0.0629063 0.191951 0.973535
23.13 -1.26668 -0.0827284 0.187553 0.973106
23.135 -1.7127 -0.0843425 0.183155 0.972791
23.14 -2.20754 -0.0894462 0.178757 0.972564
23.145 -2.83387 -0.09843 0.174044 0.972397
23.15 -3.41097 -0.100326 0.168704 0.972277
23.155 -3.65952 -0.0914502 0.163049 0.982473
23.16 -3.5782 -0.0745236 0.156765 0.987157
23.165 -3.20512 -0.052663 0.150168 0.980281
23.17 -2.48531 -0.0290923 0.143257 0.978021
23.175 -1.80811 -0.0183503 0.136031 0.976371
23.18 -1.20572 -0.00997372 0.128491 0.975172
23.185 -0.658997 -0.00209517 0.120951 0.974297
23.19 -0.328561 -0.00106011 0.11404 0.963375
23.195 -0.216711 -0.00692241 0.107128 0.968448
23.2 -0.411508 -0.0167286 0.100217 0.969401
23.205 -0.611341 -0.0172393 0.0933053 0.970092
23.21 -1.25396 -0.0373484 0.086708 0.970598
23.215 -2.09937 -0.05168 0.0797965 0.970964
23.22 -2.67699 -0.0500343 0.0725708 0.981519
23.225 -2.87315 -0.0319379 0.065031 0.976174
23.23 -2.87466 -0.0224561 0.057177 0.975028
23.235 -2.72646 -0.0115511 0.0490088 0.974192
23.24 -2.35209 0.00460005 0.0405265 0.973584
23.245 -1.51719 0.0337728 0.0320442 0.97314
23.25 -0.57558 0.0521552 0.0235619 0.972818
23.255 0.155755 0.0591819 0.0153938 0.962295
23.26 0.705067 0.0586029 0.00785398 0.967664
23.265 0.950415 0.0531263 0.00282743 0.968827
23.27 0.838224 0.0405136 -0.00188496 0.969676
23.275 0.433309 0.0271014 -0.00879646 0.970293
23.28 -0.200499 0.0130015 -0.0150796 0.970744
23.285 -0.766952 0.00713845 -0.0213628 0.981357
23.29 -1.34107 0.00642508 -0.0317301 0.976058
23.295 -1.72028 0.00958525 -0.037385 0.974941
23.3 -2.00421 0.0119896 -0.0439823 0.974131
23.305 -1.96841 0.0259369 -0.0508938 0.973538
23.31 -1.55589 0.0464493 -0.0581195 0.973108
23.315 -0.91336 0.0679036 -0.0653451 0.962506
23.32 -0.0475965 0.0838514 -0.0725708 0.967818
23.325 0.777125 0.0955051 -0.0797965 0.968939
23.33 1.56163 0.103413 -0.0813672 0.969758
23.335 2.01396 0.0988506 -0.0882788 0.970352
23.34 2.25852 0.0950035 -0.0939336 0.970788
23.345 2.17582 0.0828693 -0.0989602 0.971102
23.35 1.77655 0.0670294 -0.103358 0.971334
23.355 0.944 0.0421478 -0.107128 0.9715
23.36 0.204784 0.0361839 -0.111212 0.971624
23.365 -0.529415 0.027782 -0.114668 0.971711
23.37 -1.11656 0.0273188 -0.121265 0.971778
23.375 -1.42422 0.03739 -0.126292 0.961537
23.38 -1.35313 0.0515315 -0.130376 0.956826
23.385 -0.714071 0.0765699 -0.13446 0.963678
23.39 -0.0173567 0.0894142 -0.138544 0.965925
23.395 1.10563 0.117942 -0.142314 0.96756
23.4 2.09096 0.124371 -0.141372 0.968753
23.405 2.71501 0.119342 -0.143571 0.96962
23.41 3.02738 0.111768 -0.146398 0.970254
23.415 3.11671 0.103776 -0.148283 0.970714
23.42 2.86414 0.0874578 -0.14954 0.971051
23.425 2.14836 0.0615731 -0.150482 0.971294
23.43 1.30572 0.0458847 -0.151425 0.961187
23.435 0.370559 0.0310377 -0.152367 0.956569
23.44 -0.407236 0.0266311 -0.152996 0.953206
23.445 -0.727064 0.0366466 -0.154881 0.961041
23.45 -0.835289 0.0441117 -0.159279 0.964004
23.455 -0.443161 0.0659672 -0.16085 0.96616
23.46 0.182503 0.0818416 -0.162106 0.967734
23.465 1.13607 0.104849 -0.163049 0.958591
23.47 2.29996 0.123119 -0.159593 0.964966
23.475 3.08765 0.119114 -0.158965 0.966861
23.48 3.71739 0.119364 -0.158336 0.968244
23.485 3.9671 0.107113 -0.15708 0.96925
23.49 4.02613 0.0961099 -0.154881 0.959698
23.495 3.35846 0.0616469 -0.152367 0.955484
23.5 2.41137 0.0380192 -0.148911 0.952416
23.505 1.25596 0.0160148 -0.146084 0.960465
23.51 0.0566145 -0.00254626 -0.143571 0.963585
23.515 -0.68819 0.00189113 -0.141058 0.965855
23.52 -1.06732 0.0101544 -0.143257 0.967511
23.525 -1.00218 0.025466 -0.141058 0.968716
23.53 -0.855569 0.0303881 -0.139801 0.969595
23.535 0.272463 0.0764437 -0.138544 0.970235
23.54 1.67498 0.102101 -0.136659 0.970702
23.545 2.84738 0.106406 -0.131004 0.97104
23.55 4.02507 0.115873 -0.127863 0.961002
23.555 4.51059 0.112201 -0.124721 0.956434
23.56 4.51059 0.100138 -0.12158 0.963394
23.565 4.51059 0.0571008 -0.117496 0.965716
23.57 4.03473 0.040773 -0.112155 0.96741
23.575 2.3989 -0.0132842 -0.106186 0.968642
23.58 0.997043 -0.026175 -0.101159 0.969541
23.585 -0.234259 -0.0381066 -0.0955044 0.970194
23.59 -1.07398 -0.0363257 -0.0923628 0.970673
23.595 -1.68013 -0.0359241 -0.0898495 0.971018
23.6 -1.99228 -0.0298651 -0.0860796 0.971273
23.605 -1.34876 0.0097859 -0.0826239 0.971456
23.61 0.309495 0.0635763 -0.0794823 0.971591
23.615 1.47069 0.0590193 -0.0750841 0.961402
23.62 2.89182 0.0840482 -0.0681726 0.967013
23.625 4.13875 0.0903031 -0.0634602 0.968353
23.63 4.51059 0.0818254 -0.0584336 0.969331
23.635 4.51059 0.0628682 -0.0537212 0.970041
23.64 4.51059 0.0252113 -0.0477522 0.970561
23.645 3.71727 -0.00177815 -0.0408407 0.981223
23.65 2.15847 -0.0487356 -0.0333009 0.975961
23.655 0.400654 -0.0786292 -0.0270177 0.974871
23.66 -0.994384 -0.0858233 -0.0204204 0.974079
23.665 -1.92036 -0.0812259 -0.0188496 0.9735
23.67 -2.49802 -0.07687 -0.0131947 0.973081
23.675 -2.68959 -0.0657296 -0.00879646 0.972773
23.68 -1.40984 -0.000848708 -0.00502655 0.972551
23.685 0.108378 0.0260552 -0.00125664 0.972387
23.69 1.4212 0.034619 0.00345575 0.97227
23.695 3.23824 0.0704086 0.0116239 0.972182
23.7 4.30092 0.0555354 0.0172788 0.97212
23.705 4.51059 0.0437605 0.0226195 0.972073
23.71 4.51059 0.0238484 0.0279602 0.982327
23.715 4.13084 -0.0228849 0.0348717 0.976762
23.72 2.78364 -0.059679 0.0424115 0.975457
23.725 0.625456 -0.11638 0.0496372 0.974504
23.73 -1.16648 -0.128375 0.0559203 0.973812
23.735 -2.8617 -0.14612 0.057177 0.963019
23.74 -3.97996 -0.138605 0.0625177 0.957906
23.745 -4.34004 -0.116623 0.0666018 0.964464
23.75 -3.76513 -0.0766713 0.0694292 0.966498
23.755 -2.36301 -0.0301235 0.0719425 0.967977
23.76 -0.615112 0.00440567 0.0738274 0.969057
23.765 1.41857 0.0389678 0.0766549 0.969842
23.77 3.31233 0.0514086 0.0845088 0.960129
23.775 4.38664 0.0395428 0.0885929 0.966084
23.78 4.51059 0.0225946 0.092677 0.967678
23.785 4.51059 -0.00800353 0.0973894 0.968837
23.79 3.27756 -0.0690985 0.103358 0.969684
23.795 1.3568 -0.115517 0.109327 0.960012
23.8 -0.894067 -0.153336 0.115296 0.955715
23.805 -3.08958 -0.176122 0.115296 0.952582
23.81 -4.51059 -0.201333 0.119381 0.960588
23.815 -4.51059 -0.164699 0.122836 0.963672
23.82 -4.51059 -0.129864 0.125035 0.965921
23.825 -4.51059 -0.0768586 0.125978 0.957271
23.83 -3.18362 -0.0340963 0.125978 0.964004
23.835 -0.903077 0.00991125 0.12535 0.966161
23.84 1.44224 0.04215 0.125978 0.967734
23.845 3.1272 0.0395701 0.131319 0.968878
23.85 4.24499 0.0287306 0.133204 0.959427
23.855 4.51059 0.0282049 0.135403 0.955286
23.86 4.19056 -0.0456424 0.13823 0.952272
23.865 2.05389 -0.107666 0.142 0.96036
23.87 -0.331717 -0.14895 0.144827 0.963508
23.875 -2.90148 -0.187164 0.147027 0.965799
23.88 -4.51059 -0.198815 0.144199 0.967471
23.885 -4.51059 -0.177276 0.146712 0.9584
23.89 -4.51059 -0.17035 0.147969 0.964827
23.895 -4.51059 -0.131885 0.147655 0.96676
23.9 -4.51059 -0.0605192 0.146398 0.96817
23.905 -3.19339 -0.011295 0.144199 0.969195
23.91 -0.475942 0.0344593 0.141686 0.959659
23.915 2.12171 0.0611992 0.141686 0.955456
23.92 3.49657 0.0384333 0.14577 0.962682
23.925 4.12988 0.0199042 0.14577 0.965198
23.93 4.43302 0.010128 0.146398 0.967033
23.935 2.59544 -0.0849553 0.147655 0.968368
23.94 0.434562 -0.124054 0.147969 0.969342
23.945 -2.19118 -0.1721 0.148911 0.97005
23.95 -4.51059 -0.213448 0.143571 0.970567
23.955 -4.51059 -0.16902 0.143885 0.970942
23.96 -4.51059 -0.165611 0.142942 0.971217
23.965 -4.51059 -0.162346 0.141372 0.96113
23.97 -4.51059 -0.0953625 0.138544 0.956529
23.975 -4.51059 -0.0254611 0.13446 0.953176
23.98 -2.45818 0.0275279 0.129748 0.961021
23.985 0.909492 0.08549 0.126292 0.963988
23.99 2.69647 0.0558924 0.129434 0.966151
23.995 3.54084 0.0349008 0.127549 0.967726
24 4.25761 0.0350263 0.125664 0.958588
24.005 3.21102 -0.0337238 0.125035 0.964962
24.01 1.04537 -0.0995692 0.124407 0.96686
24.015 -1.54973 -0.146161 0.123465 0.968242
24.02 -4.51059 -0.217778 0.116867 0.958963
24.025 -4.51059 -0.169919 0.114982 0.954949
24.03 -4.51059 -0.150542 0.113097 0.952026
24.035 -4.51059 -0.160148 0.109956 0.949896
24.04 -4.51059 -0.109566 0.105872 0.95863
24.045 -4.51059 -0.0295792 0.100845 0.962247
24.05 -3.97129 0.0303117 0.0948761 0.964882
24.055 -0.344862 0.0987989 0.0885929 0.956515
24.06 1.99018 0.0851379 0.0854513 0.963452
24.065 2.81727 0.0463141 0.0854513 0.96576
24.07 3.59093 0.0533123 0.0816814 0.967441
24.075 3.62974 0.0268159 0.0785398 0.958379
24.08 1.93128 -0.0503163 0.0757124 0.954524
24.085 -0.568578 -0.105801 0.0722566 0.951716
24.09 -3.90124 -0.169085 0.065031 0.94967
24.095 -4.51059 -0.176315 0.0596903 0.958466
24.1 -4.51059 -0.123685 0.0559203 0.962127
24.105 -4.51059 -0.127199 0.0515221 0.954508
24.11 -4.51059 -0.0953009 0.0458673 0.951704
24.115 -4.51059 -0.019534 0.0395841 0.959948
24.12 -4.51059 0.0337276 0.0320442 0.963207
24.125 -1.18821 0.109207 0.0241903 0.965581
24.13 1.65114 0.126435 0.0191637 0.957024
24.135 2.89381 0.0879361 0.0182212 0.953537
24.14 3.73948 0.0844934 0.0128805 0.950997
24.145 3.88435 0.0622281 0.00879646 0.949146
24.15 2.13232 -0.0202114 0.00471239 0.958084
24.155 -0.286336 -0.0722967 -0.000314159 0.961849
24.16 -3.12008 -0.116182 -0.00628319 0.954306
24.165 -4.51059 -0.134738 -0.0160221 0.951557
24.17 -4.51059 -0.0901315 -0.0201062 0.95984
24.175 -4.51059 -0.0866085 -0.0263894 0.963129
24.18 -4.51059 -0.0509041 -0.033615 0.965524
24.185 -4.51059 0.00403509 -0.0417832 0.956983
24.19 -4.46736 0.0550403 -0.0508938 0.953507
24.195 -0.710419 0.155585 -0.0609469 0.950975
24.2 2.42573 0.173913 -0.0672301 0.959416
24.205 3.88136 0.138731 -0.0694292 0.96282
24.21 4.51059 0.142792 -0.0763407 0.965299
24.215 4.51059 0.0935211 -0.0819956 0.956819
24.22 3.53364 0.0394994 -0.0863938 0.953388
24.225 1.23625 -0.0196184 -0.0901637 0.961174
24.23 -1.53803 -0.0693394 -0.0951903 0.9641
24.235 -4.14141 -0.0883327 -0.104615 0.955946
24.24 -4.51059 -0.0877773 -0.109956 0.952751
24.245 -4.51059 -0.0539014 -0.115296 0.950424
24.25 -4.51059 -0.0224 -0.122208 0.948729
24.255 -4.51059 0.0198834 -0.130376 0.957781
24.26 -4.31012 0.0793595 -0.140115 0.961628
24.265 -0.781598 0.178061 -0.150482 0.954145
24.27 2.39092 0.204933 -0.157708 0.951439
24.275 4.36583 0.189339 -0.161164 0.949469
24.28 4.51059 0.193366 -0.167761 0.958319
24.285 4.51059 0.173679 -0.174358 0.951734
24.29 4.51059 0.112264 -0.179699 0.949683
24.295 3.79041 0.0360762 -0.183155 0.948189
24.3 0.6689 -0.0236864 -0.185982 0.947101
24.305 -2.12107 -0.0452941 -0.19258 0.946308
24.31 -4.08867 -0.0435967 -0.201062 0.956017
24.315 -4.51059 -0.0104712 -0.206717 0.960343
24.32 -4.51059 0.00310864 -0.212686 0.953209
24.325 -4.51059 0.0315483 -0.219597 0.950758
24.33 -3.51124 0.102451 -0.228394 0.959258
24.335 -0.213519 0.197082 -0.236876 0.962704
24.34 3.24291 0.247477 -0.238133 0.954929
24.345 4.51059 0.209288 -0.244102 0.952011
24.35 4.51059 0.231953 -0.250071 0.949885
24.355 4.51059 0.21801 -0.255726 0.948336
24.36 4.51059 0.167666 -0.259496 0.957494
24.365 4.51059 0.106495 -0.262323 0.95113
24.37 3.86482 0.0491296 -0.26358 0.949241
24.375 0.626334 -0.00915631 -0.264208 0.947865
24.38 -1.84653 -0.015559 -0.27269 0.957148
24.385 -2.61778 0.0347449 -0.276146 0.950879
24.39 -2.65522 0.0598364 -0.280544 0.949058
24.395 -2.91052 0.0528283 -0.283686 0.947732
24.4 -2.25373 0.0927704 -0.288084 0.946765
24.405 0.58594 0.198183 -0.292796 0.946061
24.41 3.40326 0.230041 -0.290911 0.945548
24.415 4.51059 0.235353 -0.292168 0.955461
24.42 4.51059 0.229927 -0.295624 0.949649
24.425 4.51059 0.214548 -0.298137 0.948163
24.43 4.51059 0.195565 -0.29908 0.947079
24.435 4.51059 0.129408 -0.298765 0.956576
24.44 4.51059 0.0764958 -0.297509 0.950462
24.445 2.85301 0.0328056 -0.295624 0.948754
24.45 0.0159885 -0.00692217 -0.294367 0.94751
24.455 -0.857521 0.0457459 -0.298765 0.946604
24.46 -0.644761 0.0817547 -0.299394 0.956232
24.465 -1.08059 0.0566591 -0.298451 0.9605
24.47 -0.590073 0.0948239 -0.298137 0.953322
24.475 1.54928 0.172282 -0.297509 0.950841
24.48 3.72548 0.197313 -0.29154 0.959318
24.485 4.51059 0.210281 -0.288712 0.962749
24.49 4.51059 0.201803 -0.286827 0.95496
24.495 4.51059 0.171769 -0.284628 0.952035
24.5 4.51059 0.135425 -0.281173 0.949901
24.505 4.51059 0.0994656 -0.277088 0.948349
24.51 4.51059 0.0641441 -0.272062 0.947216
24.515 2.81027 0.0305774 -0.266093 0.956679
24.52 0.498034 -0.0121932 -0.262009 0.960825
24.525 -0.60714 0.0125857 -0.262951 0.95356
24.53 -0.191886 0.066094 -0.260438 0.951013
24.535 -0.0159994 0.0600803 -0.256354 0.959445
24.54 0.584918 0.0804964 -0.252898 0.962839
24.545 2.48017 0.143041 -0.24473 0.965314
24.55 4.31855 0.158424 -0.239389 0.956829
24.555 4.51059 0.161394 -0.234363 0.953396
24.56 4.51059 0.157 -0.229336 0.950893
24.565 4.51059 0.128958 -0.223681 0.959358
24.57 4.51059 0.0954573 -0.21677 0.962776
24.575 4.51059 0.0402972 -0.20923 0.965268
24.58 4.085 0.021726 -0.200748 0.956795
24.585 2.45811 -0.00126172 -0.191951 0.963658
24.59 0.488416 -0.0415797 -0.184411 0.965908
24.595 -0.758116 -0.0357664 -0.177814 0.96755
24.6 -0.507158 0.015855 -0.174987 0.968744
24.605 -0.1404 0.0216361 -0.167761 0.95933
24.61 0.696552 0.0456262 -0.16085 0.955215
24.615 2.35913 0.0887926 -0.151111 0.952221
24.62 4.05654 0.110488 -0.142942 0.960323
24.625 4.51059 0.0893098 -0.134774 0.963481
24.63 4.51059 0.0841346 -0.127863 0.965779
24.635 4.51059 0.0908338 -0.120009 0.95717
24.64 4.51059 0.0413282 -0.111212 0.953642
24.645 4.51059 -0.010557 -0.101473 0.961361
24.65 2.96755 -0.0425537 -0.0914203 0.964235
24.655 1.28399 -0.0654084 -0.0819956 0.966331
24.66 0.0381923 -0.0728469 -0.0728849 0.957569
24.665 -0.922721 -0.0757159 -0.0637743 0.953936
24.67 -1.12325 -0.0536509 -0.0590619 0.951286
24.675 -0.922249 -0.0372484 -0.0505796 0.959644
24.68 -0.180218 -0.0124177 -0.0420973 0.962984
24.685 1.53988 0.0353573 -0.0339292 0.955134
24.69 2.79006 0.0314959 -0.0204204 0.952159
24.695 3.25562 0.00830033 -0.0116239 0.949994
24.7 4.04219 0.0290449 -0.00345575 0.958701
24.705 4.51059 0.0249098 0.00596903 0.962299
24.71 4.43706 -0.0163013 0.0160221 0.954632
24.715 3.13933 -0.0692322 0.0267035 0.951796
24.72 1.7366 -0.0936805 0.0370708 0.949727
24.725 0.376543 -0.111835 0.0471239 0.948222
24.73 -1.0808 -0.131569 0.057177 0.95741
24.735 -1.92227 -0.123651 0.0618894 0.961359
24.74 -1.99349 -0.100568 0.071 0.964234
24.745 -1.67724 -0.0867299 0.0794823 0.956044
24.75 -1.11954 -0.0720192 0.0876504 0.952822
24.755 -0.016873 -0.0390022 0.0948761 0.960763
24.76 1.26345 -0.0192694 0.102102 0.9638
24.765 2.40035 -0.0181253 0.114668 0.955728
24.77 3.03678 -0.0286985 0.122522 0.952591
24.775 3.23149 -0.0441296 0.130376 0.950309
24.78 2.81792 -0.0669766 0.138544 0.95893
24.785 1.5552 -0.115252 0.147341 0.962467
24.79 0.412944 -0.128579 0.155509 0.96504
24.795 -0.604348 -0.142706 0.163677 0.956632
24.8 -1.83668 -0.16391 0.171845 0.95325
24.805 -2.90012 -0.16752 0.17373 0.961075
24.81 -3.10097 -0.142586 0.180642 0.964027
24.815 -2.81393 -0.123641 0.186611 0.955893
24.82 -2.32815 -0.109788 0.191951 0.952712
24.825 -1.39467 -0.0834628 0.196978 0.950397
24.83 -0.270103 -0.063744 0.202004 0.948708
24.835 0.59031 -0.0624695 0.207345 0.947481
24.84 0.754171 -0.0804359 0.212372 0.956874
24.845 0.867312 -0.0862866 0.217398 0.950683
24.85 0.662544 -0.0994931 0.223053 0.94892
24.855 -0.0446692 -0.12497 0.227765 0.947635
24.86 -1.16283 -0.149693 0.232164 0.956986
24.865 -2.26832 -0.162968 0.233106 0.961051
24.87 -3.32888 -0.174281 0.236248 0.953726
24.875 -4.02275 -0.167857 0.238133 0.951137
24.88 -4.08573 -0.145389 0.239389 0.94925
24.885 -3.57563 -0.117992 0.240646 0.947876
24.89 -2.75408 -0.0952024 0.24096 0.957161
24.895 -1.84578 -0.0783706 0.240646 0.961179
24.9 -0.829333 -0.0614534 0.240646 0.953819
24.905 -0.046636 -0.0585804 0.24096 0.951204
24.91 0.548977 -0.0553917 0.241588 0.959586
24.915 0.680955 -0.069218 0.242531 0.962945
24.92 0.243969 -0.0951147 0.243473 0.955106
24.925 -0.683699 -0.12115 0.244102 0.952142
24.93 -1.85324 -0.141841 0.244102 0.949981
24.935 -2.90859 -0.148994 0.243788 0.948405
24.94 -3.97853 -0.160438 0.242531 0.957545
24.945 -4.51059 -0.156946 0.240332 0.961455
24.95 -4.51059 -0.138858 0.238133 0.964306
24.955 -4.51059 -0.10332 0.234991 0.956095
24.96 -3.8689 -0.0850043 0.230907 0.952861
24.965 -2.62368 -0.0500974 0.226509 0.960789
24.97 -1.19526 -0.0223104 0.221796 0.963821
24.975 -0.323523 -0.0270287 0.217712 0.966027
24.98 0.242203 -0.0285155 0.213628 0.95735
24.985 0.450374 -0.0367597 0.210173 0.953774
24.99 0.244725 -0.0518095 0.207031 0.95117
24.995 -0.567872 -0.0802397 0.204204 0.959558
25 -1.73287 -0.104911 0.201062 0.962924
25.005 -3.01021 -0.122239 0.197292 0.965373
25.01 -4.26689 -0.131163 0.192894 0.956874
25.015 -4.51059 -0.120084 0.187867 0.963713
25.02 -4.51059 -0.0979412 0.182841 0.965951
25.025 -4.51059 -0.0785664 0.177186 0.967579
25.03 -4.11619 -0.0468015 0.170588 0.968767
25.035 -2.75404 -0.00456711 0.163363 0.959344
25.04 -1.15288 0.0247239 0.156137 0.955228
25.045 0.00547541 0.0266487 0.149854 0.952228
25.05 0.769996 0.023804 0.143885 0.96033
25.055 1.25989 0.0218741 0.140115 0.963484
25.06 0.960511 -0.00719013 0.136345 0.965784
25.065 0.0635285 -0.0368908 0.13069 0.967457
25.07 -1.27142 -0.0646698 0.12535 0.958392
25.075 -2.36447 -0.0685979 0.114354 0.964819
25.08 -3.30024 -0.0716158 0.108385 0.966756
25.085 -4.34664 -0.0841983 0.101788 0.968165
25.09 -4.51059 -0.0703964 0.0945619 0.958908
25.095 -4.51059 -0.0355236 0.0870221 0.954908
25.1 -3.98935 -0.000175542 0.0785398 0.951997
25.105 -2.43343 0.0412024 0.0697434 0.96016
25.11 -0.775319 0.0705227 0.0612611 0.963362
25.115 0.643073 0.0829365 0.0540354 0.965693
25.12 1.70416 0.085186 0.049323 0.967393
25.125 2.25078 0.0759388 0.0442965 0.958343
25.13 2.21358 0.0554615 0.0380133 0.964785
25.135 1.56499 0.0276351 0.0320442 0.96673
25.14 0.356032 -0.0054904 0.0267035 0.968149
25.145 -0.945298 -0.0216297 0.0213628 0.958894
25.15 -2.32047 -0.0372418 0.0109956 0.9549
25.155 -3.68994 -0.0502233 0.00502655 0.951988
25.16 -4.22111 -0.0256539 -0.00188496 0.94987
25.165 -3.99853 0.000877785 -0.00879646 0.95861
25.17 -3.1757 0.0362604 -0.0163363 0.962234
25.175 -1.9845 0.0672204 -0.0245044 0.964871
25.18 -0.372157 0.107154 -0.0326726 0.956508
25.185 1.28738 0.127098 -0.0402124 0.963446
25.19 2.86877 0.144415 -0.0424115 0.965756
25.195 3.54705 0.123021 -0.0480664 0.967437
25.2 3.66399 0.104967 -0.0540354 0.958378
25.205 3.24627 0.0811309 -0.0593761 0.954522
25.21 2.12068 0.0435054 -0.0634602 0.951715
25.215 0.690198 0.0160672 -0.0678584 0.949668
25.22 -0.921172 -0.0107173 -0.0716283 0.958466
25.225 -2.38456 -0.0213169 -0.0804248 0.962126
25.23 -3.16728 -0.00688376 -0.084823 0.964795
25.235 -3.2522 0.0214762 -0.0892212 0.95645
25.24 -2.71019 0.0464882 -0.0942478 0.963406
25.245 -1.50255 0.0870706 -0.0992743 0.965725
25.25 0.17982 0.125573 -0.104615 0.967417
25.255 1.80444 0.144618 -0.108699 0.968647
25.26 3.48044 0.16534 -0.108699 0.969545
25.265 4.19164 0.140144 -0.110898 0.959911
25.27 4.51059 0.128756 -0.113726 0.955641
25.275 4.13338 0.0994791 -0.115925 0.962815
25.28 2.90303 0.0537413 -0.117181 0.965296
25.285 1.54415 0.0305244 -0.118438 0.967102
25.29 -0.0976177 6.88653e-05 -0.120323 0.96842
25.295 -1.72329 -0.021515 -0.121894 0.979662
25.3 -2.98186 -0.0198773 -0.128491 0.974824
25.305 -2.95189 0.0242541 -0.130376 0.974043
25.31 -2.2121 0.0590947 -0.132889 0.973476
25.315 -0.843363 0.0986307 -0.135717 0.973061
25.32 0.805649 0.130341 -0.137916 0.962474
25.325 2.43062 0.146057 -0.135403 0.957506
25.33 4.30452 0.175427 -0.136345 0.964176
25.335 4.51059 0.158736 -0.136345 0.966285
25.34 4.51059 0.132785 -0.136659 0.967825
25.345 4.51059 0.101975 -0.135403 0.968944
25.35 4.09128 0.0562303 -0.133518 0.969762
25.355 1.96161 -0.00117887 -0.130376 0.960069
25.36 0.231749 -0.00949454 -0.130062 0.966042
25.365 -1.45281 -0.0304007 -0.127863 0.967645
25.37 -2.84615 -0.0363686 -0.131319 0.968816
25.375 -2.91211 0.00965215 -0.131004 0.959379
25.38 -2.18278 0.0449607 -0.130062 0.955254
25.385 -0.784686 0.0844135 -0.130376 0.952246
25.39 1.09582 0.122377 -0.130062 0.950059
25.395 2.64942 0.129027 -0.125035 0.958747
25.4 4.43806 0.156673 -0.123779 0.962334
25.405 4.51059 0.158162 -0.121894 0.964943
25.41 4.51059 0.135111 -0.120637 0.956561
25.415 4.51059 0.0997165 -0.11781 0.963485
25.42 4.51059 0.0495705 -0.11404 0.965785
25.425 2.86135 -0.0173042 -0.109642 0.967458
25.43 0.859191 -0.0309929 -0.105558 0.968679
25.435 -1.00452 -0.0513895 -0.10273 0.95928
25.44 -2.28938 -0.0462369 -0.103673 0.955181
25.445 -2.32816 -0.00585359 -0.101159 0.952193
25.45 -2.01015 0.00950773 -0.0983318 0.960305
25.455 -1.01613 0.0446385 -0.0961327 0.963466
25.46 0.754855 0.091834 -0.0939336 0.965771
25.465 2.85032 0.125675 -0.0863938 0.967448
25.47 4.42169 0.125332 -0.0826239 0.968672
25.475 4.51059 0.136879 -0.0791681 0.969561
25.48 4.51059 0.108507 -0.0750841 0.970211
25.485 4.51059 0.0803864 -0.0703717 0.970682
25.49 4.51059 0.0297193 -0.0647168 0.971028
25.495 3.32347 -0.0374706 -0.0581195 0.960991
25.5 1.42975 -0.0492498 -0.0521504 0.956428
25.505 -0.586466 -0.0776225 -0.0471239 0.963388
25.51 -1.88918 -0.0715828 -0.0461814 0.965714
25.515 -2.63979 -0.0630723 -0.041469 0.967406
25.52 -2.58817 -0.0356873 -0.037385 0.968641
25.525 -2.236 -0.020511 -0.0339292 0.969539
25.53 -0.209206 0.0597579 -0.0311018 0.970195
25.535 1.98942 0.0918174 -0.0270177 0.97067
25.54 3.22624 0.0723162 -0.0185354 0.971019
25.545 4.47808 0.0850363 -0.0144513 0.971271
25.55 4.51059 0.0865326 -0.00973894 0.961171
25.555 4.51059 0.0644194 -0.00502655 0.956556
25.56 4.51059 0.00470106 0.00125664 0.953198
25.565 3.69662 -0.0345066 0.0084823 0.961034
25.57 1.44155 -0.0871585 0.0163363 0.964
25.575 -0.649976 -0.110778 0.0226195 0.966157
25.58 -2.42443 -0.123388 0.0241903 0.957445
25.585 -3.29846 -0.103788 0.0304734 0.953843
25.59 -3.34871 -0.0768557 0.0358142 0.961507
25.595 -2.94969 -0.0560175 0.0398982 0.964341
25.6 -1.52081 -0.00384847 0.0436681 0.966408
25.605 0.54525 0.0409347 0.0471239 0.957626
25.61 2.23672 0.0472737 0.0527788 0.953977
25.615 4.12137 0.0720717 0.0603186 0.951316
25.62 4.51059 0.0642547 0.065031 0.94938
25.625 4.51059 0.0290934 0.0703717 0.958253
25.63 4.51059 -0.00624672 0.0763407 0.961973
25.635 3.57143 -0.0588257 0.0832522 0.964681
25.64 1.7009 -0.100338 0.0904779 0.95637
25.645 -0.498775 -0.135286 0.0967611 0.963345
25.65 -2.57503 -0.158919 0.100531 0.965683
25.655 -4.11371 -0.159502 0.103358 0.967384
25.66 -4.29236 -0.115851 0.108071 0.958339
25.665 -4.44481 -0.114084 0.111527 0.954494
25.67 -3.7009 -0.0737205 0.11404 0.951695
25.675 -1.43427 0.00472492 0.115925 0.95994
25.68 0.669562 0.0268663 0.118438 0.963202
25.685 2.42284 0.035981 0.123465 0.965576
25.69 4.39692 0.0643556 0.129748 0.967308
25.695 4.51059 0.0289345 0.133518 0.958281
25.7 4.51059 -0.000638284 0.138544 0.96474
25.705 4.34117 -0.0420592 0.144199 0.966697
25.71 1.93476 -0.12461 0.151111 0.968125
25.715 -0.22187 -0.146236 0.156765 0.969162
25.72 -2.58851 -0.184891 0.162106 0.959634
25.725 -4.51059 -0.210123 0.162106 0.955437
25.73 -4.51059 -0.162854 0.166504 0.952382
25.735 -4.51059 -0.154545 0.16996 0.96044
25.74 -4.51059 -0.13422 0.171531 0.963567
25.745 -4.48055 -0.0585596 0.171845 0.965842
25.75 -1.45243 0.0201001 0.171217 0.967502
25.755 0.5441 0.012872 0.172159 0.968709
25.76 2.63582 0.0415108 0.173102 0.96959
25.765 4.26325 0.0433202 0.178757 0.97023
25.77 4.51059 0.0118735 0.180327 0.970698
25.775 4.19336 -0.0384818 0.183155 0.971037
25.78 2.99385 -0.0791337 0.186925 0.961
25.785 0.632123 -0.145811 0.190695 0.956432
25.79 -2.51369 -0.20796 0.193522 0.963393
25.795 -4.51059 -0.21519 0.190695 0.965716
25.8 -4.51059 -0.191176 0.193522 0.96741
25.805 -4.51059 -0.182725 0.195093 0.968641
25.81 -4.51059 -0.186889 0.195721 0.969541
25.815 -4.51059 -0.105552 0.195093 0.970194
25.82 -4.51059 -0.0431332 0.193522 0.970672
25.825 -1.96369 0.0183556 0.190695 0.971018
25.83 0.519362 0.0309075 0.189752 0.971273
25.835 2.55559 0.0409452 0.191323 0.971456
25.84 3.9164 0.0333173 0.19415 0.971591
25.845 4.01694 -0.012481 0.193522 0.961402
25.85 3.57954 -0.033575 0.194779 0.967013
25.855 1.87539 -0.0995989 0.19635 0.968353
25.86 -1.50674 -0.1973 0.197292 0.969331
25.865 -4.46247 -0.217391 0.191637 0.970041
25.87 -4.51059 -0.203639 0.191637 0.970561
25.875 -4.51059 -0.179445 0.191009 0.981223
25.88 -4.51059 -0.197083 0.189124 0.975961
25.885 -4.51059 -0.13524 0.186296 0.974871
25.89 -4.51059 -0.0713409 0.182212 0.974079
25.895 -4.27155 -0.00343651 0.1775 0.9735
25.9 -1.46931 0.0298765 0.171531 0.973081
25.905 1.03542 0.0533236 0.168075 0.972773
25.91 2.8093 0.0500845 0.170274 0.972551
25.915 3.35368 0.0157213 0.167447 0.972387
25.92 3.7748 0.0150281 0.165562 0.97227
25.925 2.7486 -0.0470027 0.164305 0.972182
25.93 -0.267487 -0.150725 0.163677 0.97212
25.935 -3.21174 -0.18359 0.159907 0.972073
25.94 -4.51059 -0.205045 0.152996 0.982327
25.945 -4.51059 -0.140524 0.152053 0.976762
25.95 -4.51059 -0.186618 0.149226 0.975457
25.955 -4.51059 -0.14195 0.145142 0.974504
25.96 -4.51059 -0.073211 0.140429 0.973812
25.965 -4.51059 -0.0513212 0.134774 0.973305
25.97 -3.07922 0.0525727 0.128177 0.972939
25.975 -0.322861 0.0663693 0.12158 0.972669
25.98 1.68902 0.0683424 0.11781 0.972475
25.985 2.90092 0.0560705 0.117496 0.972332
25.99 3.15659 0.0271823 0.113411 0.97223
25.995 3.36541 0.0269222 0.109642 0.972153
26 1.15211 -0.0805692 0.106186 0.972099
26.005 -1.54916 -0.130732 0.102102 0.982344
26.01 -4.25173 -0.159503 0.0920487 0.976777
26.015 -4.51059 -0.160668 0.0876504 0.975465
26.02 -4.51059 -0.119126 0.0832522 0.974512
26.025 -4.51059 -0.135474 0.0779115 0.973816
26.03 -4.51059 -0.0733151 0.0716283 0.973311
26.035 -4.51059 -0.0277851 0.0647168 0.97294
26.04 -4.38942 0.033478 0.0565487 0.972673
26.045 -1.27105 0.0960887 0.0480664 0.972476
26.05 1.30577 0.112704 0.0427257 0.972334
26.055 2.66379 0.0892112 0.0411549 0.972229
26.06 3.39447 0.0772035 0.0361283 0.972155
26.065 3.62693 0.0626934 0.0311018 0.972098
26.07 2.18891 -0.0108804 0.0267035 0.982346
26.075 -0.00547734 -0.0647003 0.021677 0.987062
26.08 -2.6793 -0.111125 0.0166504 0.980214
26.085 -4.51059 -0.12184 0.00596903 0.977969
26.09 -4.51059 -0.0925704 0.00125664 0.976336
26.095 -4.51059 -0.082847 -0.00502655 0.975144
26.1 -4.51059 -0.0636691 -0.0122522 0.974279
26.105 -4.51059 -0.00499154 -0.0204204 0.983931
26.11 -4.35654 0.0468119 -0.0298451 0.98822
26.115 -1.3236 0.128197 -0.0398982 0.981055
26.12 1.60721 0.161887 -0.047438 0.978584
26.125 3.23604 0.138545 -0.0505796 0.976782
26.13 3.87299 0.113315 -0.0574911 0.975472
26.135 4.51059 0.137038 -0.0644026 0.984801
26.14 4.38573 0.0787123 -0.0697434 0.988853
26.145 2.2476 -0.00387589 -0.0738274 0.991802
26.15 -0.196342 -0.043814 -0.0794823 0.983667
26.155 -3.34961 -0.104348 -0.0851372 0.980485
26.16 -4.51059 -0.0647978 -0.0948761 0.978169
26.165 -4.51059 -0.0427095 -0.0992743 0.97648
26.17 -4.51059 -0.0568821 -0.105558 0.975251
26.175 -4.51059 0.0048053 -0.112783 0.98464
26.18 -4.34242 0.0757119 -0.121265 0.97845
26.185 -1.83828 0.128541 -0.130376 0.976684
26.19 1.18004 0.185732 -0.137916 0.9754
26.195 3.70897 0.200557 -0.140743 0.974462
26.2 4.51059 0.169077 -0.14577 0.973782
26.205 4.51059 0.202308 -0.152053 0.973283
26.21 4.51059 0.146458 -0.157708 0.983209
26.215 4.51059 0.0694102 -0.161478 0.977405
26.22 2.53286 0.00939998 -0.163991 0.975924
26.225 -0.631644 -0.0481781 -0.167761 0.974845
26.23 -3.45672 -0.0690334 -0.176872 0.97406
26.235 -4.51059 -0.0229027 -0.182212 0.973487
26.24 -4.51059 -0.0156004 -0.187239 0.973071
26.245 -4.51059 -0.00644447 -0.193208 0.972767
26.25 -4.51059 0.0592424 -0.201062 0.972546
26.255 -2.59234 0.131871 -0.209544 0.972384
26.26 0.762823 0.211201 -0.217712 0.972268
26.265 4.19979 0.255931 -0.218969 0.972181
26.27 4.51059 0.194979 -0.222425 0.97212
26.275 4.51059 0.230682 -0.229336 0.98236
26.28 4.51059 0.207594 -0.234049 0.987075
26.285 4.51059 0.151611 -0.23719 0.990508
26.29 4.51059 0.0761339 -0.238761 0.982724
26.295 2.62868 0.0125264 -0.239389 0.979799
26.3 -0.636034 -0.0345387 -0.24096 0.977669
26.305 -2.66021 -0.0162528 -0.2485 0.976116
26.31 -3.15897 0.0259137 -0.251956 0.985273
26.315 -3.93565 0.0106953 -0.254783 0.989196
26.32 -3.92872 0.0459545 -0.259496 0.981767
26.325 -2.26889 0.123361 -0.264522 0.979102
26.33 0.647627 0.203431 -0.269863 0.977161
26.335 4.43488 0.277321 -0.268292 0.975746
26.34 4.51059 0.234106 -0.270177 0.985002
26.345 4.51059 0.214273 -0.274261 0.988998
26.35 4.51059 0.23927 -0.276774 0.99191
26.355 4.51059 0.201856 -0.278031 0.99403
26.36 4.51059 0.119297 -0.277717 0.985289
26.365 4.51059 0.055523 -0.276774 0.981668
26.37 2.49252 0.0211788 -0.274889 0.97903
26.375 -0.304396 -0.0136018 -0.274889 0.977108
26.38 -1.61345 0.0204713 -0.279288 0.975708
26.385 -1.48235 0.0683567 -0.281487 0.984974
26.39 -1.51751 0.0644347 -0.282115 0.988978
26.395 -1.15363 0.0861216 -0.282429 0.981608
26.4 1.35074 0.187583 -0.283372 0.978986
26.405 3.86352 0.215872 -0.277403 0.977076
26.41 4.51059 0.213739 -0.274575 0.975685
26.415 4.51059 0.216522 -0.274261 0.984957
26.42 4.51059 0.176739 -0.273004 0.988966
26.425 4.51059 0.170593 -0.270491 0.991886
26.43 4.51059 0.102658 -0.266721 0.994013
26.435 4.51059 0.0504011 -0.262323 0.985277
26.44 2.6493 0.0245453 -0.256982 0.981659
26.445 0.0916954 -0.0229676 -0.253527 0.979023
26.45 -1.08657 0.00848297 -0.255097 0.977103
26.455 -0.421936 0.0770518 -0.254155 0.98599
26.46 -0.462932 0.0535544 -0.251956 0.989718
26.465 0.340473 0.0919622 -0.249442 0.982148
26.47 2.38337 0.156655 -0.246301 0.979379
26.475 4.38013 0.175783 -0.238447 0.977362
26.48 4.51059 0.175708 -0.233734 0.975893
26.485 4.51059 0.166956 -0.229965 0.974823
26.49 4.51059 0.149675 -0.225566 0.984329
26.495 4.51059 0.117921 -0.219911 0.988508
26.5 4.51059 0.0610996 -0.213 0.991553
26.505 4.50393 0.028008 -0.20546 0.983484
26.51 2.4697 -0.008886 -0.196978 0.980353
26.515 0.175698 -0.0487454 -0.190695 0.978072
26.52 -0.763979 -0.0162031 -0.188496 0.97641
26.525 -0.529007 0.0243096 -0.182527 0.975199
26.53 -0.368631 0.0238543 -0.176872 0.984603
26.535 0.253071 0.0446309 -0.170903 0.978422
26.54 2.10224 0.106431 -0.165248 0.976665
26.545 3.90207 0.122738 -0.154566 0.975385
26.55 4.51059 0.106063 -0.147341 0.974453
26.555 4.51059 0.110572 -0.141058 0.973773
26.56 4.51059 0.101747 -0.134146 0.983565
26.565 4.51059 0.0468904 -0.126292 0.987951
26.57 4.51059 0.0088132 -0.117496 0.991147
26.575 3.34445 -0.0173508 -0.107442 0.983189
26.58 1.64926 -0.0521848 -0.0983318 0.980137
26.585 -0.13584 -0.0798432 -0.0904779 0.977915
26.59 -1.3965 -0.0791226 -0.0845088 0.976296
26.595 -1.44759 -0.0401087 -0.0791681 0.975116
26.6 -0.929014 -0.0155493 -0.0719425 0.974257
26.605 -0.058503 0.00596586 -0.065031 0.973631
26.61 1.67232 0.0540023 -0.0581195 0.973175
26.615 2.84487 0.0462495 -0.0461814 0.972842
26.62 3.67868 0.041763 -0.0380133 0.9726
26.625 4.51059 0.0745693 -0.0304734 0.972424
26.63 4.51059 0.0553791 -0.021677 0.982582
26.635 4.51059 0.00179289 -0.0122522 0.987235
26.64 3.72316 -0.0528413 -0.00188496 0.990625
26.645 2.28735 -0.0765096 0.0084823 0.982809
26.65 0.28662 -0.121646 0.0182212 0.979861
26.655 -1.19431 -0.124906 0.027646 0.977713
26.66 -2.0856 -0.116232 0.0323584 0.976149
26.665 -2.4485 -0.10367 0.0408407 0.975009
26.67 -2.32043 -0.0841323 0.0483805 0.984465
26.675 -1.79994 -0.0647909 0.055292 0.988607
26.68 -0.106299 -0.00674392 0.0612611 0.981335
26.685 1.37466 0.00366225 0.0681726 0.978785
26.69 2.55834 0.00477882 0.0794823 0.976927
26.695 3.29954 0.00146056 0.0857655 0.98586
26.7 3.93579 0.0013598 0.092677 0.98962
26.705 3.65048 -0.0370437 0.100217 0.992361
26.71 2.25347 -0.0963782 0.108699 0.994356
26.715 1.05462 -0.108394 0.116239 0.995811
26.72 -0.511358 -0.146945 0.124721 0.986583
26.725 -1.77269 -0.151637 0.131633 0.982609
26.73 -3.00183 -0.164368 0.134774 0.979712
26.735 -3.47508 -0.144552 0.142 0.977603
26.74 -2.95518 -0.102808 0.147655 0.986351
26.745 -2.50612 -0.0986429 0.15331 0.98998
26.75 -1.15043 -0.0523683 0.158336 0.982335
26.755 -0.0155158 -0.0454004 0.163363 0.979514
26.76 0.988677 -0.0380176 0.167761 0.977457
26.765 1.34359 -0.0575558 0.176243 0.97596
26.77 1.73401 -0.0533493 0.180956 0.974869
26.775 1.89467 -0.0568172 0.185668 0.984364
26.78 0.857235 -0.113058 0.191009 0.988532
26.785 -0.368421 -0.136611 0.195407 0.991571
26.79 -1.99353 -0.171371 0.199491 0.993783
26.795 -3.11616 -0.166582 0.197292 0.995396
26.8 -3.53525 -0.14687 0.200434 0.996569
26.805 -3.49547 -0.129318 0.203261 0.98714
26.81 -3.45762 -0.126387 0.20546 0.983015
26.815 -3.15799 -0.111208 0.206403 0.990298
26.82 -2.41542 -0.0844883 0.206717 0.992855
26.825 -1.0667 -0.0448826 0.206717 0.994721
26.83 -0.112977 -0.0449231 0.207659 0.996077
26.835 0.089048 -0.0689767 0.208288 0.986781
26.84 0.558343 -0.0537645 0.208916 0.982754
26.845 0.507193 -0.0698262 0.209858 0.990108
26.85 -0.361999 -0.109079 0.210801 0.992717
26.855 -1.63756 -0.138653 0.211115 0.99462
26.86 -2.7373 -0.14563 0.211115 0.996003
26.865 -3.09852 -0.123346 0.210487 0.997014
26.87 -3.68205 -0.135847 0.210173 0.997748
26.875 -3.91315 -0.123923 0.208916 0.998285
26.88 -3.57686 -0.0971747 0.207031 0.998673
26.885 -2.9923 -0.0778958 0.204204 0.998959
26.89 -1.9282 -0.0450353 0.201062 0.999165
26.895 -0.922144 -0.0316109 0.197606 0.999317
26.9 -0.242318 -0.0321848 0.194465 0.999425
26.905 0.37047 -0.0254993 0.191637 0.999507
26.91 0.525363 -0.0382399 0.18881 0.999564
26.915 0.267634 -0.0549669 0.186296 0.999608
26.92 -0.574061 -0.0847715 0.183783 0.999637
26.925 -1.71533 -0.108306 0.18127 0.999661
26.93 -2.50303 -0.104509 0.178442 0.999676
26.935 -3.1452 -0.105118 0.174987 0.99969
26.94 -3.6864 -0.105517 0.171531 0.999697
26.945 -3.65876 -0.0824705 0.167761 0.999705
26.95 -3.14038 -0.0557025 0.163677 0.999708
26.955 -2.71855 -0.0499881 0.15865 0.999713
26.96 -2.11387 -0.0327627 0.15331 0.999713
26.965 -1.01097 0.00100957 0.147969 0.999717
26.97 -0.0295262 0.0114464 0.143257 0.999717
26.975 0.559494 0.00687058 0.139173 0.999719
26.98 0.498873 -0.0150844 0.135088 0.999718
26.985 -0.0182124 -0.0362699 0.13069 0.99972
26.99 -0.822793 -0.0549214 0.125664 0.999719
26.995 -1.63759 -0.0639481 0.120951 0.999721
27 -2.40401 -0.0697429 0.115925 0.99972
27.005 -3.08554 -0.0726194 0.110584 0.999721
27.01 -3.57397 -0.0689415 0.105243 0.99972
27.015 -3.63855 -0.051476 0.0989602 0.999721
27.02 -3.27387 -0.0283054 0.092677 0.99972
27.025 -2.42713 -0.000425572 0.0863938 1.01001
27.03 -1.41238 0.0233498 0.0794823 1.01475
27.035 -0.2977 0.0462362 0.0728849 1.00793
27.04 0.399595 0.0417289 0.0669159 1.0057
27.045 0.705813 0.0334786 0.0609469 1.00408
27.05 0.545447 0.0164716 0.055292 1.00289
27.055 0.207555 0.00700543 0.0499513 1.00203
27.06 -0.181396 0.0014896 0.0442965 1.0014
27.065 -0.99284 -0.0217798 0.0389557 1.00095
27.07 -1.85705 -0.0321336 0.0317301 1.00061
27.075 -2.50267 -0.0304755 0.0260752 1.00037
27.08 -2.83674 -0.0209808 0.0194779 1.00019
27.085 -2.78537 -0.00385625 0.0128805 1.00007
27.09 -2.14512 0.0243226 0.00628319 1.01026
27.095 -1.3897 0.0455349 -0.000628319 1.00465
27.1 -0.535119 0.0613791 -0.00753982 1.00331
27.105 0.342564 0.0753401 -0.0144513 1.00234
27.11 1.03056 0.0788239 -0.0204204 1.00163
27.115 1.58336 0.0802938 -0.0210487 1.00111
27.12 1.83683 0.073729 -0.0270177 1.00073
27.125 1.71408 0.0592154 -0.0317301 1.00046
27.13 0.934137 0.0270375 -0.0367566 1.00026
27.135 -0.0296954 0.0087657 -0.0411549 1.00011
27.14 -0.82115 0.00544288 -0.0458673 1.00001
27.145 -1.45704 0.00547147 -0.0549779 0.999929
27.15 -1.57001 0.0235006 -0.0593761 0.999874
27.155 -1.60601 0.0277047 -0.0640885 0.999835
27.16 -1.12386 0.0534916 -0.069115 0.999806
27.165 -0.357376 0.0747384 -0.0741416 0.999785
27.17 0.648302 0.0968178 -0.0785398 0.99977
27.175 1.87184 0.118718 -0.0779115 0.999759
27.18 2.66908 0.114216 -0.0813672 0.989464
27.185 2.84292 0.0934397 -0.0832522 0.984711
27.19 2.70598 0.0799321 -0.0860796 0.991535
27.195 2.11376 0.055525 -0.0879646 0.99376
27.2 1.47115 0.0443345 -0.0898495 0.99538
27.205 0.456552 0.0180094 -0.0914203 0.996561
27.21 -0.679889 -0.000834567 -0.0929911 0.997421
27.215 -1.63567 -0.00258944 -0.0999026 0.987761
27.22 -1.94723 0.0160634 -0.101788 0.983471
27.225 -1.68607 0.0376187 -0.104615 0.990631
27.23 -0.983165 0.0637298 -0.107128 0.993101
27.235 0.0197716 0.0879225 -0.109956 0.994901
27.24 1.27892 0.113093 -0.112155 0.996212
27.245 2.40596 0.121062 -0.109013 0.997164
27.25 3.17931 0.117549 -0.109956 0.997859
27.255 3.80274 0.118206 -0.11027 0.998363
27.26 3.54989 0.0825644 -0.109642 0.998733
27.265 2.90628 0.0582691 -0.108699 0.999
27.27 1.92762 0.0312104 -0.107442 0.988911
27.275 0.76041 0.00945482 -0.106814 0.994591
27.28 -0.211881 0.00192859 -0.104929 0.995985
27.285 -1.02164 -0.0033498 -0.103987 0.996998
27.29 -1.44113 0.00585897 -0.107128 0.997739
27.295 -1.44345 0.0205584 -0.106814 0.998276
27.3 -0.949349 0.045556 -0.1065 0.988383
27.305 0.24387 0.0833522 -0.106186 0.98392
27.31 1.76301 0.112397 -0.105243 0.990958
27.315 3.01283 0.11692 -0.0999026 0.993336
27.32 3.83122 0.110264 -0.0973894 0.995071
27.325 4.14584 0.0943796 -0.0958186 0.996332
27.33 4.0868 0.0775913 -0.0936195 0.997253
27.335 3.37703 0.0430245 -0.090792 0.997922
27.34 2.33558 0.015278 -0.0876504 0.998412
27.345 1.2221 -0.00528049 -0.084823 0.98848
27.35 -0.246422 -0.0361555 -0.0813672 0.983993
27.355 -1.41597 -0.0407984 -0.0794823 0.980722
27.36 -2.05039 -0.0292303 -0.0813672 0.978342
27.365 -1.7722 0.00410049 -0.0785398 0.986892
27.37 -0.801768 0.0404225 -0.0766549 0.990376
27.375 0.524829 0.0693658 -0.0744557 0.992912
27.38 1.69001 0.0763791 -0.0706858 0.984476
27.385 2.77873 0.084392 -0.065031 0.981074
27.39 3.87695 0.0952946 -0.0618894 0.978598
27.395 4.40617 0.0826407 -0.0578053 0.987078
27.4 4.21108 0.0512256 -0.0534071 0.990512
27.405 3.51941 0.0215649 -0.0483805 0.993011
27.41 2.35277 -0.0130677 -0.043354 0.994834
27.415 0.855531 -0.0463628 -0.0383274 0.99616
27.42 -0.486905 -0.0604126 -0.0333009 0.997128
27.425 -1.8288 -0.0775568 -0.0329867 0.987545
27.43 -2.42085 -0.0586194 -0.0301593 0.983312
27.435 -2.34538 -0.0346468 -0.0267035 0.980226
27.44 -1.68175 -0.00599645 -0.0241903 0.988267
27.445 -0.550964 0.0249893 -0.0223053 0.991375
27.45 0.882513 0.0522037 -0.0204204 0.983356
27.455 2.56583 0.0783438 -0.0125664 0.980258
27.46 3.80174 0.0762199 -0.00942478 0.978004
27.465 4.47433 0.0626039 -0.00628319 0.976359
27.47 4.51059 0.0440444 -0.00188496 0.975164
27.475 3.91263 0.00483013 0.00282743 0.984576
27.48 2.78373 -0.0276644 0.00816814 0.988689
27.485 1.19009 -0.0669649 0.0135088 0.991683
27.49 -0.475143 -0.0930699 0.0188496 0.993867
27.495 -1.71579 -0.0962063 0.0213628 0.985169
27.5 -2.84428 -0.104755 0.0238761 0.981581
27.505 -3.04437 -0.0754901 0.0282743 0.978965
27.51 -2.62339 -0.0484281 0.0317301 0.977062
27.515 -1.58834 -0.0142259 0.0345575 0.975673
27.52 -0.0257169 0.0242185 0.0370708 0.98495
27.525 1.51512 0.0407665 0.0398982 0.978673
27.53 2.98829 0.0539095 0.047438 0.976849
27.535 3.79981 0.0391895 0.0515221 0.975518
27.54 4.15136 0.0250627 0.0549779 0.974551
27.545 3.71524 -0.00557115 0.0590619 0.98413
27.55 2.55446 -0.0493903 0.0637743 0.988364
27.555 1.06317 -0.0824679 0.0681726 0.991446
27.56 -0.411543 -0.105098 0.0728849 0.983408
27.565 -2.00764 -0.127986 0.0763407 0.980296
27.57 -3.38623 -0.135434 0.0750841 0.978032
27.575 -3.47289 -0.092486 0.078854 0.976379
27.58 -3.27334 -0.0784598 0.0810531 0.975178
27.585 -2.27854 -0.0381255 0.082938 0.974301
27.59 -0.841857 -0.00440086 0.0841947 0.973664
27.595 0.800571 0.0229395 0.0860796 0.973198
27.6 2.20445 0.030246 0.092677 0.97286
27.605 3.20422 0.0273373 0.0955044 0.972611
27.61 3.66255 0.0124649 0.098646 0.972433
27.615 3.42778 -0.0163234 0.102102 0.972301
27.62 2.25746 -0.0610829 0.106186 0.982494
27.625 0.726751 -0.0965094 0.109956 0.98717
27.63 -0.843032 -0.119649 0.113726 0.990579
27.635 -2.75264 -0.154959 0.112469 0.982774
27.64 -4.09559 -0.150541 0.114982 0.979836
27.645 -4.51059 -0.126622 0.116239 0.977694
27.65 -4.41976 -0.0977267 0.117181 0.976136
27.655 -3.60764 -0.0651415 0.116553 0.985285
27.66 -2.10735 -0.0196572 0.115611 0.989206
27.665 -0.326995 0.014108 0.114354 0.981773
27.67 1.13972 0.0221021 0.11404 0.979107
27.675 2.59779 0.0376 0.118752 0.977163
27.68 3.41903 0.0249836 0.119381 0.975749
27.685 3.34746 -0.00409178 0.119695 0.985003
27.69 2.54863 -0.0418901 0.121265 0.989
27.695 1.02908 -0.0873819 0.122522 0.99191
27.7 -0.397385 -0.103813 0.124093 0.994033
27.705 -2.38781 -0.14814 0.125035 0.995576
27.71 -4.15015 -0.159013 0.120637 0.986416
27.715 -4.51059 -0.131602 0.12158 0.982487
27.72 -4.51059 -0.118476 0.120637 0.979628
27.725 -4.51059 -0.0805365 0.119381 0.977542
27.73 -3.27723 -0.0255843 0.116553 0.986312
27.735 -1.53097 0.00644527 0.11404 0.989951
27.74 0.197881 0.0301956 0.111527 0.992605
27.745 1.9254 0.053087 0.109327 0.994536
27.75 3.02961 0.0422686 0.112155 0.985659
27.755 3.30116 0.0164526 0.111212 0.981936
27.76 3.14544 0.0010053 0.11027 0.989512
27.765 2.06291 -0.0466086 0.110584 0.992283
27.77 0.0852599 -0.103083 0.109956 0.994303
27.775 -1.80099 -0.124347 0.109642 0.995773
27.78 -3.70786 -0.1465 0.103673 0.996846
27.785 -4.51059 -0.139938 0.102416 0.997625
27.79 -4.51059 -0.11065 0.100217 0.998196
27.795 -4.51059 -0.0935799 0.0973894 0.998608
27.8 -4.51059 -0.0421284 0.0936195 0.988626
27.805 -2.78007 0.00679648 0.0889071 0.994383
27.81 -0.948383 0.035365 0.0841947 0.995834
27.815 0.572057 0.0462892 0.0804248 0.996888
27.82 2.36319 0.0785471 0.0782257 0.997658
27.825 3.42284 0.0656427 0.0791681 0.998217
27.83 3.48047 0.0308402 0.0775973 0.998627
27.835 3.3746 0.0219038 0.0763407 0.998922
27.84 1.32854 -0.0725592 0.0753982 0.988854
27.845 -0.74923 -0.0988745 0.0738274 0.99455
27.85 -2.57164 -0.112035 0.0681726 0.995955
27.855 -4.51059 -0.143011 0.0666018 0.996976
27.86 -4.51059 -0.110752 0.0634602 0.997723
27.865 -4.51059 -0.0908216 0.0606327 0.998264
27.87 -4.51059 -0.0593146 0.0562345 0.998661
27.875 -4.46671 -0.0193208 0.051208 0.998947
27.88 -2.29568 0.0476079 0.0442965 0.999159
27.885 -0.0224407 0.0832104 0.0389557 0.99931
27.89 1.88302 0.0966929 0.0345575 0.989137
27.895 3.67706 0.113797 0.0339292 0.994756
27.9 4.25659 0.0790372 0.0311018 0.996105
27.905 4.34403 0.0616905 0.027646 0.997085
27.91 3.41693 0.0133697 0.0254469 0.997802
27.915 1.15536 -0.0624908 0.0241903 0.998322
27.92 -1.08813 -0.0908692 0.021677 0.998703
27.925 -2.93405 -0.0987812 0.015708 0.998978
27.93 -4.51059 -0.122802 0.0135088 0.988895
27.935 -4.51059 -0.0988363 0.00973894 0.994579
27.94 -4.51059 -0.0691526 0.00659734 0.995977
27.945 -4.51059 -0.0328799 0.00188496 0.996992
27.95 -3.83654 0.0315087 -0.00376991 0.997734
27.955 -1.02531 0.103916 -0.0100531 0.998272
27.96 0.780437 0.0953275 -0.0147655 0.998667
27.965 2.68338 0.122 -0.0141372 0.998952
27.97 4.11952 0.12424 -0.0191637 0.999162
27.975 4.51059 0.0992258 -0.0223053 0.999312
27.98 4.51059 0.072414 -0.0245044 0.999425
27.985 3.08273 0.00580098 -0.0257611 0.999504
27.99 0.584906 -0.0624816 -0.0273319 0.999564
27.995 -1.77821 -0.087954 -0.0301593 0.999605
28 -3.61293 -0.0906281 -0.0367566 0.999638
28.005 -4.51059 -0.087081 -0.0395841 0.999659
28.01 -4.51059 -0.0652747 -0.0430398 0.999677
28.015 -4.51059 -0.0337835 -0.0471239 0.989402
28.02 -4.51059 0.0139056 -0.0527788 0.984665
28.025 -2.44522 0.0744871 -0.0596903 0.991498
28.03 0.362058 0.1382 -0.0653451 0.993732
28.035 2.95389 0.164346 -0.0662876 0.995357
28.04 4.51059 0.1735 -0.069115 0.996543
28.045 4.51059 0.141758 -0.0722566 0.997404
28.05 4.51059 0.120013 -0.0757124 0.998035
28.055 4.51059 0.0690241 -0.076969 0.998491
28.06 3.45115 -0.000175305 -0.0775973 0.98854
28.065 0.595805 -0.0594839 -0.0772832 0.984035
28.07 -1.97284 -0.0812159 -0.0794823 0.980754
28.075 -4.01057 -0.0854894 -0.0857655 0.978363
28.08 -4.51059 -0.0578557 -0.0882788 0.986909
28.085 -4.51059 -0.0751544 -0.0914203 0.990387
28.09 -4.51059 -0.00383608 -0.0955044 0.982636
28.095 -3.41002 0.0788197 -0.100531 0.979734
28.1 -0.440762 0.142189 -0.106186 0.977622
28.105 2.62592 0.184129 -0.109327 0.976081
28.11 4.51059 0.174455 -0.108699 0.985247
28.115 4.51059 0.162536 -0.111212 0.989176
28.12 4.51059 0.174099 -0.113726 0.981754
28.125 4.51059 0.144776 -0.115296 0.979091
28.13 4.51059 0.0566481 -0.114982 0.977154
28.135 2.8883 -0.048141 -0.11404 0.97574
28.14 -0.961107 -0.102679 -0.113411 0.974712
28.145 -3.5199 -0.087077 -0.119695 0.963675
28.15 -4.51059 -0.058609 -0.121894 0.958383
28.155 -4.51059 -0.0581613 -0.123779 0.964812
28.16 -4.51059 -0.0517238 -0.12692 0.966752
28.165 -4.51059 0.0495835 -0.131319 0.968163
28.17 -1.8533 0.133421 -0.136973 0.969192
28.175 1.74695 0.196267 -0.141058 0.96994
28.18 4.51059 0.23213 -0.138858 0.960201
28.185 4.51059 0.170949 -0.139487 0.966136
28.19 4.51059 0.195384 -0.142628 0.967716
28.195 4.51059 0.192239 -0.143885 0.968865
28.2 4.51059 0.108619 -0.143885 0.969704
28.205 4.51059 0.00516588 -0.142 0.960027
28.21 1.54869 -0.0779138 -0.139801 0.955725
28.215 -2.14423 -0.103426 -0.140429 0.962876
28.22 -3.8595 -0.0588441 -0.146398 0.965341
28.225 -4.50069 -0.0295576 -0.147027 0.967135
28.23 -4.51059 -0.0516594 -0.14954 0.968443
28.235 -4.51059 0.0259047 -0.152996 0.969395
28.24 -2.15529 0.117185 -0.157708 0.97009
28.245 1.66037 0.205664 -0.161164 0.970594
28.25 4.51059 0.264199 -0.15865 0.970964
28.255 4.51059 0.2135 -0.159279 0.97123
28.26 4.51059 0.212567 -0.161478 0.971427
28.265 4.51059 0.205587 -0.161792 0.961282
28.27 4.51059 0.133004 -0.16085 0.95664
28.275 4.51059 0.0590613 -0.158336 0.963542
28.28 4.43796 -0.0296072 -0.155509 0.965827
28.285 0.0638057 -0.0970766 -0.152053 0.967488
28.29 -2.13537 -0.053185 -0.15708 0.968701
28.295 -3.30657 -0.0303855 -0.15865 0.959296
28.3 -4.24037 -0.0347073 -0.15865 0.965479
28.305 -4.17481 0.00233184 -0.160221 0.967235
28.31 -2.13837 0.0945271 -0.161792 0.968517
28.315 1.11344 0.176592 -0.163049 0.959162
28.32 4.51059 0.248401 -0.158022 0.955095
28.325 4.51059 0.207031 -0.155823 0.952131
28.33 4.51059 0.185613 -0.157708 0.949974
28.335 4.51059 0.21047 -0.15708 0.958686
28.34 4.51059 0.135654 -0.155195 0.952002
28.345 4.51059 0.068133 -0.152367 0.949878
28.35 4.51059 -0.00396499 -0.148597 0.948332
28.355 0.959348 -0.0995269 -0.144199 0.947204
28.36 -1.71673 -0.0698343 -0.143885 0.946384
28.365 -2.89485 -0.0347258 -0.146712 0.945785
28.37 -3.7166 -0.0314859 -0.145456 0.94535
28.375 -3.54938 0.00426087 -0.145142 0.945032
28.38 -1.42521 0.093536 -0.144827 0.944802
28.385 1.76218 0.165693 -0.143571 0.944632
28.39 4.51059 0.221238 -0.136659 0.944511
28.395 4.51059 0.213582 -0.133832 0.94442
28.4 4.51059 0.189964 -0.132261 0.944356
28.405 4.51059 0.174424 -0.129434 0.934021
28.41 4.51059 0.120774 -0.125035 0.939527
28.415 4.51059 0.0473635 -0.119695 0.94079
28.42 4.51059 -0.0138137 -0.113411 0.941711
28.425 1.71638 -0.0931196 -0.106814 0.942381
28.43 -1.78556 -0.11448 -0.103358 0.942871
28.435 -3.40024 -0.0729309 -0.105558 0.943225
28.44 -3.79583 -0.0378829 -0.102416 0.943486
28.445 -3.16619 0.00422438 -0.100845 0.943673
28.45 -1.0579 0.0776234 -0.0989602 0.943812
28.455 1.71554 0.131827 -0.0964469 0.943911
28.46 4.51059 0.169812 -0.0889071 0.943986
28.465 4.51059 0.186586 -0.0835664 0.944037
28.47 4.51059 0.182832 -0.0816814 0.944078
28.475 4.51059 0.162341 -0.0772832 0.944104
28.48 4.51059 0.121342 -0.0716283 0.93384
28.485 4.51059 0.0178842 -0.0647168 0.939393
28.49 4.51059 -0.0388544 -0.057177 0.940694
28.495 1.96618 -0.111487 -0.0490088 0.94164
28.5 -1.27505 -0.123938 -0.0430398 0.942331
28.505 -3.17322 -0.10396 -0.0424115 0.942832
28.51 -3.92483 -0.0759475 -0.0380133 0.943199
28.515 -3.37957 -0.0269887 -0.0339292 0.943465
28.52 -1.8149 0.0252394 -0.0301593 0.94366
28.525 0.965904 0.0969842 -0.0263894 0.9438
28.53 3.98397 0.140575 -0.0163363 0.95419
28.535 4.51059 0.168398 -0.0106814 0.948726
28.54 4.51059 0.151289 -0.00628319 0.947493
28.545 4.51059 0.126632 -0.000942478 0.946593
28.55 4.51059 0.0773646 0.00596903 0.956226
28.555 4.51059 -0.000451771 0.0135088 0.950209
28.56 4.51059 -0.0491707 0.0223053 0.948573
28.565 2.16395 -0.132345 0.0314159 0.94738
28.57 -1.26178 -0.159431 0.0383274 0.946513
28.575 -3.30551 -0.138903 0.0398982 0.956165
28.58 -4.21003 -0.114346 0.0458673 0.950166
28.585 -3.69689 -0.0616946 0.0521504 0.948541
28.59 -2.91986 -0.0425364 0.057177 0.947358
28.595 -0.510086 0.040097 0.0618894 0.956781
28.6 2.15607 0.080638 0.0678584 0.960901
28.605 4.51059 0.113425 0.0785398 0.953615
28.61 4.51059 0.106893 0.0851372 0.951054
28.615 4.51059 0.0711343 0.090792 0.949188
28.62 4.51059 0.0399053 0.0980177 0.947829
28.625 4.51059 -0.0302102 0.1065 0.946839
28.63 4.51059 -0.0778475 0.115925 0.946117
28.635 1.22072 -0.163723 0.126292 0.945592
28.64 -2.1451 -0.199618 0.133518 0.945209
28.645 -3.81128 -0.165088 0.135717 0.94493
28.65 -4.51059 -0.15384 0.143885 0.955013
28.655 -4.51059 -0.127147 0.150168 0.949325
28.66 -4.05298 -0.0824718 0.155195 0.947929
28.665 -1.84669 -0.013565 0.159279 0.946911
28.67 0.857921 0.0346957 0.163677 0.94617
28.675 3.62297 0.0703526 0.174673 0.955916
28.68 4.51059 0.0666854 0.180013 0.949983
28.685 4.51059 0.0464952 0.185668 0.948408
28.69 4.51059 0.020516 0.192265 0.94726
28.695 4.51059 -0.0571503 0.200119 0.946424
28.7 4.16066 -0.11277 0.209544 0.945815
28.705 0.76418 -0.190039 0.219283 0.945371
28.71 -2.51328 -0.228115 0.226823 0.945048
28.715 -4.06462 -0.191059 0.228708 0.944813
28.72 -4.51059 -0.199988 0.236876 0.944641
28.725 -4.51059 -0.199197 0.243159 0.954802
28.73 -4.51059 -0.137909 0.247872 0.949172
28.735 -4.04129 -0.0692541 0.251642 0.947817
28.74 -1.27212 -0.0136219 0.253841 0.94683
28.745 0.988881 -0.00253913 0.257611 0.946111
28.75 3.29801 0.023196 0.266721 0.945587
28.755 4.35471 -0.00695533 0.270805 0.945205
28.76 4.51059 -0.00748421 0.27646 0.944927
28.765 4.51059 -0.0704733 0.282115 0.944724
28.77 2.48381 -0.142785 0.289655 0.944577
28.775 -0.284975 -0.197419 0.296252 0.954756
28.78 -3.42534 -0.253464 0.301907 0.949138
28.785 -4.51059 -0.221078 0.30285 0.947792
28.79 -4.51059 -0.22122 0.308819 0.946812
28.795 -4.51059 -0.219276 0.313217 0.956384
28.8 -4.51059 -0.182694 0.316044 0.950324
28.805 -4.51059 -0.128908 0.318243 0.948656
28.81 -3.43547 -0.04823 0.319186 0.947441
28.815 -1.26894 -0.0448798 0.3195 0.946556
28.82 0.858022 -0.0200762 0.320757 0.945911
28.825 2.02618 -0.0384899 0.326411 0.945441
28.83 2.05221 -0.0762207 0.328925 0.945099
28.835 1.80628 -0.0897206 0.330496 0.94485
28.84 0.438895 -0.143285 0.333009 0.944668
28.845 -2.05358 -0.209299 0.335208 0.944536
28.85 -4.49025 -0.233662 0.330181 0.94444
28.855 -4.51059 -0.238736 0.331124 0.944369
28.86 -4.51059 -0.199371 0.332066 0.944318
28.865 -4.51059 -0.173983 0.332066 0.944281
28.87 -4.51059 -0.14769 0.33081 0.933968
28.875 -4.51059 -0.107492 0.329239 0.939487
28.88 -3.82409 -0.074951 0.325783 0.940761
28.885 -2.08044 -0.0528323 0.322327 0.94169
28.89 -0.507788 -0.0373895 0.319186 0.93208
28.895 0.469708 -0.0428837 0.316673 0.938112
28.9 0.466712 -0.0733037 0.314473 0.93976
28.905 -0.178191 -0.100954 0.312274 0.94096
28.91 -1.46401 -0.135743 0.309761 0.941835
28.915 -3.09234 -0.164327 0.306934 0.942472
28.92 -4.51059 -0.191421 0.30285 0.942936
28.925 -4.51059 -0.199092 0.298451 0.943274
28.93 -4.51059 -0.156114 0.294367 0.94352
28.935 -4.51059 -0.131611 0.289655 0.9437
28.94 -4.51059 -0.0884912 0.284 0.94383
28.945 -4.34058 -0.0485798 0.277717 0.943926
28.95 -2.67639 -0.0287982 0.270491 0.943995
28.955 -1.10778 -0.00955102 0.264208 0.944045
28.96 -0.011806 -0.00896898 0.257925 0.944082
28.965 0.654403 -0.0133889 0.251956 0.954395
28.97 0.712039 -0.0312373 0.247872 0.948876
28.975 -0.372092 -0.0797737 0.242845 0.947601
28.98 -1.76927 -0.105087 0.237819 0.946672
28.985 -3.51891 -0.137135 0.23185 0.956282
28.99 -4.51059 -0.133459 0.223996 0.95025
28.995 -4.51059 -0.125799 0.218341 0.9486
29 -4.51059 -0.125828 0.211743 0.947398
29.005 -4.51059 -0.0905787 0.204832 0.946522
29.01 -4.51059 -0.0433428 0.196978 0.945884
29.015 -3.99854 -0.00326476 0.188496 0.94542
29.02 -2.01781 0.0317509 0.179385 0.94508
29.025 -0.924241 0.0205176 0.170588 0.944834
29.03 -0.105638 0.024173 0.162106 0.944654
29.035 0.625852 0.0303092 0.154252 0.95481
29.04 0.569268 0.0076908 0.147655 0.949175
29.045 -0.41993 -0.0328949 0.140115 0.947817
29.05 -1.84911 -0.0619242 0.132261 0.946827
29.055 -3.84127 -0.100058 0.12315 0.946107
29.06 -4.51059 -0.0879584 0.113726 0.945581
29.065 -4.51059 -0.0523167 0.104929 0.945199
29.07 -4.51059 -0.0444952 0.0964469 0.94492
29.075 -4.51059 -0.0205255 0.0870221 0.944717
29.08 -4.28304 0.0146299 0.0766549 0.944569
29.085 -2.62632 0.0548143 0.0656593 0.954748
29.09 -1.07573 0.0806954 0.0556062 0.949132
29.095 0.419008 0.0981982 0.0455531 0.947788
29.1 1.64699 0.105473 0.0376991 0.946808
29.105 2.20542 0.0903609 0.0326726 0.946096
29.11 1.67708 0.0480549 0.0245044 0.955861
29.115 0.678238 0.0236909 0.0160221 0.949944
29.12 -0.810816 -0.00889423 0.00753982 0.948378
29.125 -2.02606 -0.0110131 -0.00596903 0.94724
29.13 -2.9657 -0.0105203 -0.0141372 0.946408
29.135 -3.37126 0.00524127 -0.0226195 0.945805
29.14 -3.74183 0.00637101 -0.0320442 0.945363
29.145 -3.43655 0.0359897 -0.0417832 0.945043
29.15 -2.47649 0.0727292 -0.0521504 0.944808
29.155 -0.815853 0.11854 -0.0625177 0.944639
29.16 0.980707 0.143842 -0.0716283 0.954799
29.165 2.49189 0.156693 -0.0757124 0.949171
29.17 3.33407 0.144299 -0.0835664 0.947815
29.175 3.30751 0.115532 -0.0914203 0.946829
29.18 3.09931 0.106059 -0.098646 0.946109
29.185 2.32841 0.0778439 -0.104929 0.945587
29.19 1.62296 0.07051 -0.110584 0.945204
29.195 0.328946 0.0359652 -0.115296 0.944927
29.2 -1.22938 0.00959546 -0.120637 0.944723
29.205 -2.29505 0.0155173 -0.131004 0.944577
29.21 -2.69999 0.0298911 -0.136659 0.954755
29.215 -2.0719 0.078572 -0.143257 0.949139
29.22 -0.686737 0.119993 -0.148283 0.947791
29.225 0.368095 0.123353 -0.152996 0.946812
29.23 1.37481 0.131554 -0.155195 0.956383
29.235 2.35194 0.144417 -0.158965 0.950325
29.24 3.43585 0.158911 -0.163363 0.948655
29.245 4.19275 0.155143 -0.16619 0.947442
29.25 4.11496 0.124883 -0.168704 0.946555
29.255 3.24057 0.0863474 -0.170903 0.945912
29.26 1.91185 0.0533076 -0.172788 0.955727
29.265 0.512632 0.0323092 -0.175929 0.960133
29.27 -0.843786 0.0182857 -0.177814 0.953054
29.275 -1.66287 0.0275341 -0.184726 0.950646
29.28 -1.83054 0.044671 -0.186611 0.959176
29.285 -1.25719 0.0775788 -0.188496 0.962646
29.29 -0.315975 0.104475 -0.191009 0.954885
29.295 0.802755 0.122864 -0.192894 0.95198
29.3 2.14896 0.144143 -0.190381 0.949861
29.305 3.5657 0.161201 -0.190695 0.94832
29.31 4.51059 0.160661 -0.190381 0.957481
29.315 4.51059 0.125942 -0.189752 0.951125
29.32 4.51059 0.115515 -0.188496 0.949238
29.325 3.8677 0.078905 -0.186611 0.947866
29.33 2.42717 0.0391075 -0.183783 0.957151
29.335 0.822279 0.0106371 -0.182527 0.950884
29.34 -0.387035 0.00778375 -0.180956 0.949063
29.345 -1.12267 0.014852 -0.183469 0.947738
29.35 -1.46053 0.023744 -0.182527 0.946771
29.355 -1.07502 0.0518161 -0.181898 0.946069
29.36 -0.0341934 0.0853756 -0.181584 0.945555
29.365 1.29823 0.1102 -0.180956 0.955469
29.37 3.01474 0.140513 -0.175929 0.949657
29.375 4.43657 0.144896 -0.173102 0.948171
29.38 4.51059 0.14995 -0.171217 0.947087
29.385 4.51059 0.13222 -0.169018 0.956585
29.39 4.51059 0.102744 -0.165876 0.95047
29.395 4.51059 0.0582745 -0.162106 0.948763
29.4 3.59865 0.0120677 -0.15708 0.947518
29.405 1.69793 -0.0166663 -0.151739 0.946613
29.41 0.301142 -0.0187092 -0.148283 0.956238
29.415 -0.48079 -0.0113528 -0.143571 0.960505
29.42 -1.04956 -0.0115948 -0.142942 0.953325
29.425 -1.38646 -0.00811881 -0.139487 0.950844
29.43 -0.43149 0.044523 -0.136031 0.95932
29.435 1.04055 0.0788809 -0.132261 0.96275
29.44 2.87058 0.1077 -0.123465 0.954961
29.445 4.13412 0.101321 -0.118124 0.952035
29.45 4.51059 0.0861348 -0.113411 0.949902
29.455 4.51059 0.0826278 -0.108385 0.948349
29.46 4.51059 0.0696935 -0.10273 0.947216
29.465 4.51059 0.0286641 -0.0964469 0.956681
29.47 3.34296 -0.0220009 -0.0889071 0.950543
29.475 1.35317 -0.0623723 -0.0819956 0.948817
29.48 -0.108967 -0.0653878 -0.0766549 0.947561
29.485 -0.884178 -0.0529638 -0.0706858 0.956931
29.49 -1.45949 -0.0550591 -0.0684867 0.950725
29.495 -1.43589 -0.0352262 -0.0640885 0.94895
29.5 -0.987559 -0.0163848 -0.0593761 0.947657
29.505 0.536325 0.0354489 -0.0549779 0.946716
29.51 2.40353 0.06665 -0.0486947 0.946029
29.515 3.5853 0.058882 -0.0395841 0.955816
29.52 4.19823 0.0437946 -0.0333009 0.960199
29.525 4.51059 0.0412255 -0.0273319 0.953105
29.53 4.51059 0.0252651 -0.0204204 0.950684
29.535 4.10861 -0.0182392 -0.0128805 0.959207
29.54 2.75151 -0.0560952 -0.00408407 0.962669
29.545 0.567274 -0.113783 0.00376991 0.965191
29.55 -0.860748 -0.111884 0.0113097 0.956742
29.555 -2.10359 -0.119196 0.0141372 0.953334
29.56 -2.98206 -0.117666 0.0204204 0.95085
29.565 -2.82561 -0.0814307 0.0260752 0.959324
29.57 -2.18635 -0.0573729 0.0317301 0.962753
29.575 -0.951213 -0.0221219 0.0361283 0.965249
29.58 0.473506 -0.000303381 0.0398982 0.956784
29.585 1.71672 0.0106461 0.0442965 0.963647
29.59 2.95079 0.0216612 0.0534071 0.965903
29.595 3.7368 0.0137426 0.0590619 0.967544
29.6 3.98091 -0.00447803 0.0644026 0.968741
29.605 3.2501 -0.053642 0.0700575 0.959325
29.61 1.89317 -0.0918376 0.0760265 0.955215
29.615 -0.0429353 -0.135623 0.0816814 0.952218
29.62 -1.3346 -0.129647 0.0870221 0.960323
29.625 -2.43202 -0.136847 0.0879646 0.963479
29.63 -3.16461 -0.133757 0.0933053 0.96578
29.635 -3.44557 -0.121118 0.0970752 0.967454
29.64 -3.27771 -0.102495 0.100217 0.95839
29.645 -2.18556 -0.0574732 0.10273 0.964817
29.65 -0.358888 -0.00974913 0.105243 0.966755
29.655 1.3562 0.00784465 0.108385 0.968165
29.66 2.194 -0.0160508 0.116553 0.958908
29.665 2.92678 -0.0120524 0.119066 0.954908
29.67 2.99967 -0.0349989 0.122522 0.951997
29.675 2.30133 -0.0671947 0.126292 0.96016
29.68 1.30786 -0.0925914 0.130062 0.963362
29.685 -0.377326 -0.137596 0.134146 0.965693
29.69 -1.77495 -0.14715 0.136973 0.957107
29.695 -3.2254 -0.162676 0.13446 0.953596
29.7 -4.22773 -0.158791 0.136659 0.961327
29.705 -4.14291 -0.119909 0.137288 0.96421
29.71 -3.75778 -0.101288 0.137916 0.956027
29.715 -2.83826 -0.0703357 0.137288 0.95281
29.72 -1.19279 -0.0251609 0.136659 0.950468
29.725 0.276799 -0.0120571 0.136659 0.94876
29.73 1.34398 -0.0119571 0.136659 0.947518
29.735 2.21093 -0.00806957 0.142 0.956897
29.74 2.68026 -0.0166101 0.142314 0.960985
29.745 2.38959 -0.0493065 0.143885 0.953675
29.75 1.13885 -0.0957948 0.145456 0.951099
29.755 -0.434135 -0.124671 0.147341 0.959505
29.76 -2.24005 -0.155083 0.147969 0.962886
29.765 -4.18869 -0.179378 0.142942 0.955059
29.77 -4.51059 -0.147961 0.142942 0.952107
29.775 -4.51059 -0.140926 0.142314 0.949954
29.78 -4.51059 -0.112199 0.140429 0.948388
29.785 -4.40007 -0.0735706 0.137916 0.95753
29.79 -3.12377 -0.0458085 0.134146 0.961447
29.795 -1.07469 0.0091438 0.129748 0.954011
29.8 0.274813 0.00403045 0.126606 0.951343
29.805 1.28828 0.00670905 0.123465 0.959684
29.81 2.21497 0.0143501 0.124721 0.963015
29.815 2.08316 -0.02335 0.122836 0.955154
29.82 1.4104 -0.0490641 0.120637 0.952176
29.825 -0.197932 -0.0982578 0.118752 0.950004
29.83 -2.35597 -0.140245 0.115925 0.948424
29.835 -4.04957 -0.141533 0.107757 0.947271
29.84 -4.51059 -0.116396 0.105243 0.956719
29.845 -4.51059 -0.111587 0.101788 0.950567
29.85 -4.51059 -0.111667 0.0977035 0.948835
29.855 -4.51059 -0.0611225 0.0920487 0.94757
29.86 -3.7238 -0.0152307 0.0857655 0.956937
29.865 -1.75475 0.0267774 0.078854 0.961012
29.87 -0.225406 0.0366735 0.0728849 0.953697
29.875 0.986884 0.041809 0.0672301 0.951112
29.88 1.81942 0.0387332 0.0669159 0.949231
29.885 2.46327 0.0406076 0.0609469 0.947859
29.89 2.19444 0.00806006 0.0568628 0.957148
29.895 0.762457 -0.0473734 0.0527788 0.961166
29.9 -0.966646 -0.0780067 0.0483805 0.964095
29.905 -3.03956 -0.108826 0.0392699 0.955941
29.91 -4.17887 -0.0929962 0.0339292 0.963035
29.915 -4.51059 -0.0872724 0.0282743 0.965455
29.92 -4.51059 -0.0844142 0.0219911 0.967219
29.925 -4.51059 -0.0416996 0.0147655 0.958216
29.93 -4.19437 0.0111679 0.0069115 0.954407
29.935 -2.465 0.0473622 -0.00188496 0.951629
29.94 -0.225938 0.0914139 -0.0103673 0.959894
29.945 1.53364 0.101509 -0.0172788 0.963167
29.95 2.54883 0.0898173 -0.019792 0.965553
29.955 3.06604 0.0802966 -0.0257611 0.957003
29.96 3.44212 0.0791277 -0.0320442 0.953523
29.965 2.7796 0.0367145 -0.0370708 0.961271
29.97 0.98608 -0.0228456 -0.041469 0.964172
29.975 -1.14473 -0.0575217 -0.0464956 0.955997
29.98 -2.80979 -0.0590892 -0.0562345 0.95279
29.985 -3.96494 -0.0533766 -0.0609469 0.950451
29.99 -4.51059 -0.0392962 -0.0669159 0.94875
29.995 -4.51059 -0.0278253 -0.0731991 0.947508
30 -3.72632 0.0335775 -0.0804248 0.956892
30.005 -2.02367 0.0810416 -0.0882788 0.950693
30.01 0.0161828 0.11794 -0.0961327 0.948926
30.015 1.75259 0.130576 -0.10273 0.947638
30.02 3.21665 0.13775 -0.105558 0.956986
30.025 3.70814 0.113015 -0.110898 0.950762
30.03 3.99735 0.108319 -0.116553 0.948976
30.035 4.42684 0.11573 -0.120951 0.947673
30.04 3.04242 0.0394562 -0.124093 0.946726
30.045 0.612174 -0.0239736 -0.127549 0.946034
30.05 -1.2952 -0.032144 -0.132261 0.955818
30.055 -2.81744 -0.0323208 -0.140429 0.949911
30.06 -3.83391 -0.0260727 -0.144513 0.948356
30.065 -4.20001 -0.00592055 -0.149226 0.947222
30.07 -3.45061 0.0381575 -0.154881 0.956683
30.075 -2.58027 0.0584704 -0.16085 0.960827
30.08 -0.913574 0.111723 -0.167447 0.953562
30.085 1.52709 0.166022 -0.173416 0.951014
30.09 3.33127 0.165751 -0.173416 0.94916
30.095 4.51059 0.165615 -0.176872 0.947807
30.1 4.51059 0.154838 -0.180642 0.95711
30.105 4.51059 0.13081 -0.184097 0.961138
30.11 4.51059 0.0939034 -0.185982 0.953789
30.115 2.88779 0.0233006 -0.186296 0.951179
30.12 0.787212 -0.00368678 -0.186925 0.959566
30.125 -0.947716 -0.0144374 -0.188181 0.962928
30.13 -2.98636 -0.047315 -0.19415 0.965379
30.135 -3.81212 -0.0117041 -0.197606 0.956876
30.14 -3.68758 0.0226128 -0.200119 0.95343
30.145 -3.40079 0.0349188 -0.203889 0.950918
30.15 -1.48207 0.109883 -0.208602 0.959376
30.155 1.19575 0.171151 -0.212686 0.962789
30.16 2.94003 0.161942 -0.211429 0.965278
30.165 4.51059 0.188467 -0.213628 0.956802
30.17 4.51059 0.179269 -0.215827 0.953377
30.175 4.51059 0.189189 -0.217712 0.961165
30.18 4.51059 0.128765 -0.218027 0.964095
30.185 4.51059 0.0926887 -0.21677 0.95594
30.19 3.41184 0.000136485 -0.214885 0.952749
30.195 0.592992 -0.0299331 -0.212686 0.950421
30.2 -1.25901 -0.0211923 -0.214885 0.948728
30.205 -2.85588 -0.0330258 -0.217398 0.957778
30.21 -3.11411 0.00890312 -0.218655 0.961628
30.215 -3.36989 0.00836193 -0.219597 0.964429
30.22 -2.53746 0.0597531 -0.221482 0.956186
30.225 0.0127049 0.146131 -0.223681 0.952926
30.23 2.60518 0.178086 -0.223996 0.960839
30.235 4.51059 0.181225 -0.219911 0.963855
30.24 4.51059 0.184391 -0.22054 0.955768
30.245 4.51059 0.187469 -0.221168 0.952621
30.25 4.51059 0.177324 -0.22054 0.95033
30.255 4.51059 0.114364 -0.218341 0.948659
30.26 4.51059 0.0493577 -0.215513 0.957731
30.265 3.20449 -0.018135 -0.212058 0.961591
30.27 0.442853 -0.0422026 -0.208602 0.954118
30.275 -1.32623 -0.0300808 -0.212058 0.951419
30.28 -1.8092 0.00461481 -0.211429 0.959741
30.285 -2.33652 -0.00173953 -0.211115 0.963055
30.29 -2.27283 0.0215302 -0.210487 0.955185
30.295 -0.401263 0.102362 -0.209858 0.952196
30.3 1.68342 0.133825 -0.208288 0.950021
30.305 4.42237 0.184104 -0.202319 0.948434
30.31 4.51059 0.178348 -0.198549 0.947281
30.315 4.51059 0.161942 -0.19635 0.956724
30.32 4.51059 0.152776 -0.193208 0.950573
30.325 4.51059 0.117269 -0.189438 0.948837
30.33 4.51059 0.0624357 -0.184411 0.947574
30.335 4.51059 0.00701698 -0.178442 0.956937
30.34 2.00953 -0.057819 -0.171845 0.950729
30.345 -0.586147 -0.0719488 -0.168389 0.94895
30.35 -1.94533 -0.0481583 -0.169018 0.947656
30.355 -2.21229 -0.0158104 -0.166819 0.946711
30.36 -2.33649 -0.0116787 -0.163677 0.946025
30.365 -1.14623 0.0449573 -0.161792 0.95581
30.37 1.30598 0.115427 -0.159279 0.949907
30.375 3.98616 0.151255 -0.151111 0.948351
30.38 4.51059 0.154629 -0.146084 0.94722
30.385 4.51059 0.154346 -0.142942 0.95668
30.39 4.51059 0.131854 -0.138544 0.960827
30.395 4.51059 0.0957742 -0.132889 0.95356
30.4 4.51059 0.0482777 -0.126606 0.951015
30.405 4.51059 0.0084741 -0.118752 0.949158
30.41 3.31479 -0.0671286 -0.110584 0.947808
30.415 0.0114609 -0.113379 -0.103044 0.957108
30.42 -1.96998 -0.0977771 -0.102102 0.961139
30.425 -2.1764 -0.0438151 -0.0977035 0.953787
30.43 -2.6349 -0.0566727 -0.0917345 0.95118
30.435 -1.8754 -0.00786406 -0.0870221 0.959565
30.44 -0.235262 0.0412747 -0.0826239 0.962929
30.445 2.25415 0.0988143 -0.0779115 0.965377
30.45 4.51059 0.121615 -0.0675442 0.956877
30.455 4.51059 0.104473 -0.0612611 0.953429
30.46 4.51059 0.105665 -0.0565487 0.950919
30.465 4.51059 0.0639133 -0.0502655 0.959374
30.47 4.51059 0.035776 -0.0430398 0.96279
30.475 4.51059 -0.0247775 -0.0351858 0.95499
30.48 3.17966 -0.0927675 -0.0260752 0.952056
30.485 -0.189826 -0.152562 -0.0179071 0.949917
30.49 -2.50876 -0.145603 -0.0160221 0.958647
30.495 -3.02846 -0.0953931 -0.0103673 0.962258
30.5 -3.28489 -0.0892941 -0.00439823 0.964891
30.505 -2.64639 -0.0515529 0.000314159 0.95652
30.51 -1.28432 -0.0110871 0.00471239 0.953171
30.515 0.744799 0.0344247 0.00879646 0.950729
30.52 3.39398 0.0862894 0.0185354 0.959239
30.525 4.51059 0.0790665 0.0263894 0.962689
30.53 4.51059 0.0733148 0.0314159 0.954919
30.535 4.51059 0.0336706 0.0380133 0.952002
30.54 4.51059 -0.00141168 0.0452389 0.94988
30.545 4.51059 -0.0415145 0.0537212 0.958617
30.55 2.87389 -0.11514 0.0628318 0.962239
30.555 -0.454369 -0.185581 0.0716283 0.954588
30.56 -3.43551 -0.207968 0.0741416 0.951764
30.565 -4.18842 -0.144472 0.078854 0.949704
30.57 -4.51059 -0.156692 0.0854513 0.958492
30.575 -4.51059 -0.127922 0.0898495 0.962145
30.58 -3.64365 -0.057821 0.0933053 0.964808
30.585 -1.95835 -0.0305014 0.0958186 0.95646
30.59 1.09564 0.0503207 0.0983318 0.953128
30.595 3.44317 0.052577 0.107442 0.950697
30.6 4.51059 0.0679921 0.111841 0.959215
30.605 4.51059 0.0475883 0.116553 0.952386
30.61 4.51059 0.00250153 0.121265 0.950159
30.615 4.51059 -0.0423807 0.127863 0.948535
30.62 3.77243 -0.114955 0.135717 0.947354
30.625 0.42222 -0.184128 0.143571 0.956777
30.63 -3.25607 -0.244072 0.148911 0.960898
30.635 -4.51059 -0.181758 0.148911 0.953612
30.64 -4.51059 -0.196264 0.155509 0.951052
30.645 -4.51059 -0.209545 0.160221 0.949185
30.65 -4.51059 -0.150173 0.163991 0.958114
30.655 -4.51059 -0.0678607 0.16619 0.96187
30.66 -2.33432 -0.00933828 0.166819 0.954322
30.665 0.924725 0.0414498 0.168389 0.951567
30.67 3.35594 0.041368 0.176243 0.949563
30.675 4.13807 -0.00436281 0.179071 0.9481
30.68 4.51059 0.00195403 0.181584 0.957324
30.685 4.51059 -0.0207997 0.184726 0.951008
30.69 3.33512 -0.106937 0.189752 0.949155
30.695 0.428806 -0.180082 0.19415 0.947803
30.7 -3.27146 -0.2493 0.197292 0.957107
30.705 -4.51059 -0.239023 0.194779 0.961136
30.71 -4.51059 -0.19002 0.198863 0.953788
30.715 -4.51059 -0.223735 0.200748 0.951178
30.72 -4.51059 -0.185283 0.20169 0.949279
30.725 -4.51059 -0.108122 0.20169 0.947894
30.73 -4.51059 -0.0542647 0.200748 0.957173
30.735 -1.75775 0.00372289 0.198863 0.961184
30.74 1.33357 0.0413267 0.199177 0.953822
30.745 2.95375 0.0112362 0.204518 0.951203
30.75 3.51715 -0.0182088 0.206717 0.949298
30.755 3.68358 -0.0277116 0.207031 0.958194
30.76 2.69739 -0.0839811 0.20923 0.951644
30.765 0.403192 -0.153874 0.211115 0.949616
30.77 -2.72542 -0.217834 0.212372 0.948142
30.775 -4.51059 -0.23873 0.206717 0.947065
30.78 -4.51059 -0.204808 0.208602 0.956569
30.785 -4.51059 -0.224291 0.208602 0.960744
30.79 -4.51059 -0.193866 0.207031 0.953502
30.795 -4.51059 -0.125344 0.205146 0.95097
30.8 -4.51059 -0.0830403 0.20169 0.949128
30.805 -3.73856 -0.0054511 0.197606 0.95807
30.81 -0.566203 0.0333235 0.193208 0.96184
30.815 1.24323 0.0131087 0.191323 0.954298
30.82 2.3116 0.000520686 0.193208 0.951552
30.825 2.72057 -0.0165819 0.191009 0.949549
30.83 2.15676 -0.055636 0.189752 0.948093
30.835 0.0458538 -0.129889 0.187867 0.957316
30.84 -2.88483 -0.191636 0.185982 0.951004
30.845 -4.51059 -0.215141 0.177186 0.949151
30.85 -4.51059 -0.181548 0.175301 0.947802
30.855 -4.51059 -0.183352 0.172473 0.957105
30.86 -4.51059 -0.166866 0.168704 0.950851
30.865 -4.51059 -0.112825 0.164305 0.949039
30.87 -4.51059 -0.0716304 0.15865 0.947721
30.875 -4.51059 -0.00338828 0.152367 0.94676
30.88 -1.85387 0.0353815 0.145142 0.946061
30.885 0.49703 0.0488196 0.139801 0.955836
30.89 1.43684 0.0171317 0.137916 0.960212
30.895 1.65023 -0.00316833 0.134146 0.953113
30.9 1.19282 -0.0299257 0.129119 0.950689
30.905 -0.439162 -0.085935 0.123779 0.948922
30.91 -2.57409 -0.127722 0.11781 0.957922
30.915 -4.51059 -0.150691 0.1065 0.951444
30.92 -4.51059 -0.151153 0.100845 0.949473
30.925 -4.51059 -0.126373 0.0945619 0.948036
30.93 -4.51059 -0.0950424 0.0873363 0.94699
30.935 -4.51059 -0.0681983 0.0785398 0.956513
30.94 -4.51059 -0.0140063 0.0697434 0.960706
30.945 -3.69111 0.0305295 0.0596903 0.963759
30.95 -1.49696 0.0657755 0.049323 0.955697
30.955 0.7489 0.0934238 0.0408407 0.962856
30.96 1.91417 0.0747155 0.0376991 0.965326
30.965 2.17685 0.0500323 0.0289027 0.967125
30.97 1.64136 0.0193489 0.0213628 0.958149
30.975 0.0319079 -0.0337083 0.013823 0.954356
30.98 -2.15535 -0.0761298 0.00628319 0.951594
30.985 -4.09821 -0.086051 -0.00753982 0.949581
30.99 -4.51059 -0.0876779 -0.0150796 0.958401
30.995 -4.51059 -0.0809227 -0.0235619 0.96208
31 -4.51059 -0.035176 -0.0329867 0.96476
31.005 -4.51059 -0.00914393 -0.0436681 0.956426
31.01 -4.51059 0.0497915 -0.0549779 0.963388
31.015 -2.69053 0.0836099 -0.0672301 0.965713
31.02 -0.228429 0.136312 -0.0791681 0.967406
31.025 1.76705 0.151697 -0.0889071 0.958354
31.03 2.81115 0.13201 -0.0948761 0.954506
31.035 3.52553 0.130192 -0.104929 0.951703
31.04 2.93664 0.0814127 -0.11404 0.94966
31.045 1.87086 0.0515534 -0.122836 0.958459
31.05 0.104257 0.00836236 -0.131633 0.962122
31.055 -1.86429 -0.0166297 -0.139801 0.954504
31.06 -3.29039 -0.0122109 -0.152996 0.951702
31.065 -4.18336 -0.00761693 -0.160535 0.959946
31.07 -4.3853 0.0187376 -0.16996 0.963205
31.075 -3.96262 0.0560559 -0.179699 0.955294
31.08 -2.63137 0.104404 -0.190381 0.952276
31.085 -0.748777 0.148861 -0.201376 0.950078
31.09 1.24907 0.179216 -0.211429 0.948477
31.095 2.99445 0.192085 -0.21677 0.947311
31.1 4.11956 0.184153 -0.224938 0.956747
31.105 4.51059 0.172874 -0.233734 0.950589
31.11 4.51059 0.154447 -0.241274 0.948849
31.115 3.80976 0.11426 -0.247243 0.947582
31.12 2.14089 0.0661547 -0.252584 0.956945
31.125 0.299836 0.0403931 -0.258867 0.950733
31.13 -1.27512 0.0306792 -0.264522 0.948954
31.135 -2.31012 0.0387087 -0.273633 0.947658
31.14 -2.68585 0.0581252 -0.279602 0.946714
31.145 -2.34518 0.0880403 -0.285257 0.946026
31.15 -1.1495 0.128234 -0.29154 0.955811
31.155 0.134303 0.15106 -0.297509 0.960193
31.16 1.7789 0.18702 -0.30285 0.953099
31.165 3.55546 0.209895 -0.30442 0.950678
31.17 4.42456 0.189118 -0.308504 0.9592
31.175 4.51059 0.20054 -0.312903 0.962662
31.18 4.51059 0.174033 -0.316358 0.954898
31.185 4.51059 0.136674 -0.319186 0.951988
31.19 3.75032 0.10561 -0.319814 0.949868
31.195 1.89472 0.0602732 -0.320128 0.948324
31.2 0.680496 0.0633364 -0.322013 0.957485
31.205 0.15301 0.0782252 -0.322642 0.961413
31.21 -0.397762 0.0704104 -0.322642 0.964274
31.215 -0.215221 0.100127 -0.327354 0.956072
31.22 0.286927 0.113837 -0.327982 0.96313
31.225 1.27342 0.142122 -0.327982 0.965525
31.23 2.793 0.176308 -0.324841 0.96727
31.235 3.81613 0.170425 -0.323584 0.958255
31.24 4.51059 0.169526 -0.322327 0.954433
31.245 4.51059 0.162686 -0.321699 0.95165
31.25 4.51059 0.151945 -0.320442 0.949622
31.255 4.51059 0.126914 -0.317929 0.958431
31.26 4.1911 0.0945402 -0.315102 0.962102
31.265 2.77273 0.057131 -0.311018 0.95449
31.27 1.73681 0.0547218 -0.307562 0.951691
31.275 1.26282 0.0652402 -0.30442 0.959938
31.28 1.04078 0.0685995 -0.300965 0.9632
31.285 1.13665 0.0780647 -0.297195 0.955289
31.29 1.50633 0.0895762 -0.293425 0.952273
31.295 2.50313 0.119254 -0.289341 0.950076
31.3 3.31696 0.120032 -0.284 0.948476
31.305 4.51059 0.142836 -0.279288 0.947309
31.31 4.51059 0.12425 -0.273319 0.956743
31.315 4.51059 0.102224 -0.267664 0.96087
31.32 4.51059 0.0898869 -0.261695 0.95359
31.325 4.40457 0.0679557 -0.254469 0.951033
31.33 3.50996 0.044263 -0.246615 0.959456
31.335 2.6382 0.0284844 -0.238447 0.962847
31.34 1.77346 0.0118633 -0.230907 0.955029
31.345 1.13206 0.00963387 -0.22431 0.952082
31.35 0.862672 0.0159225 -0.217084 0.949934
31.355 1.11233 0.0331743 -0.209858 0.94837
31.36 1.74157 0.0527182 -0.202633 0.957516
31.365 2.3009 0.0542653 -0.195407 0.961433
31.37 2.90463 0.0567392 -0.187867 0.954
31.375 3.63899 0.0666393 -0.180013 0.951332
31.38 4.16578 0.0663207 -0.172159 0.959674
31.385 4.38911 0.0534765 -0.163363 0.963005
31.39 4.0091 0.024413 -0.154566 0.965431
31.395 3.58147 0.00798972 -0.145142 0.956913
31.4 2.73508 -0.0186323 -0.135403 0.953453
31.405 1.76492 -0.0379576 -0.125978 0.950937
31.41 0.869478 -0.0493162 -0.116867 0.949102
31.415 -0.0034406 -0.0589278 -0.107442 0.958053
31.42 -0.299418 -0.0472189 -0.0983318 0.961825
31.425 -0.318131 -0.0400918 -0.0898495 0.964576
31.43 0.100223 -0.0248002 -0.0813672 0.956291
31.435 0.755574 -0.0075468 -0.0731991 0.96329
31.44 1.68686 0.0101198 -0.065031 0.96564
31.445 2.56181 0.0165561 -0.057177 0.967355
31.45 3.20777 0.00929566 -0.0490088 0.958315
31.455 3.25745 -0.0120685 -0.0402124 0.954479
31.46 3.14581 -0.0224951 -0.0317301 0.951682
31.465 2.6331 -0.0407156 -0.0229336 0.959933
31.47 1.73311 -0.069362 -0.0141372 0.963194
31.475 0.60275 -0.0937862 -0.00565487 0.965573
31.48 -0.426167 -0.10547 0.00282743 0.967304
31.485 -0.862563 -0.0951832 0.00973894 0.95828
31.49 -1.30935 -0.0972887 0.013823 0.964737
31.495 -1.32036 -0.084376 0.0207345 0.966697
31.5 -0.962221 -0.0682458 0.027646 0.968122
31.505 -0.343053 -0.0524007 0.0339292 0.969163
31.51 0.654484 -0.0313399 0.0398982 0.959633
31.515 1.45467 -0.0289895 0.0461814 0.955438
31.52 2.09665 -0.0298108 0.0568628 0.952381
31.525 2.23021 -0.0430737 0.0637743 0.960442
31.53 2.13695 -0.0552026 0.0700575 0.963565
31.535 1.4239 -0.0866029 0.0766549 0.965843
31.54 0.603718 -0.105726 0.0832522 0.957214
31.545 -0.427026 -0.12222 0.0895354 0.963963
31.55 -1.33794 -0.131285 0.0951903 0.96613
31.555 -2.07939 -0.133333 0.0955044 0.967712
31.56 -2.62555 -0.133788 0.0999026 0.958575
31.565 -2.66026 -0.115694 0.103987 0.954668
31.57 -1.99773 -0.083706 0.107128 0.95182
31.575 -1.13156 -0.0655586 0.11027 0.949747
31.58 -0.23728 -0.0513717 0.112783 0.958521
31.585 0.583819 -0.0435165 0.115296 0.962168
31.59 1.17517 -0.0466747 0.118438 0.954537
31.595 1.61973 -0.0479608 0.126292 0.951726
31.6 1.54514 -0.066597 0.129119 0.949676
31.605 0.922302 -0.0901351 0.132575 0.958472
31.61 -0.0775214 -0.118463 0.135403 0.951844
31.615 -1.22429 -0.135992 0.13823 0.949765
31.62 -2.36128 -0.146759 0.135717 0.948247
31.625 -3.24191 -0.147159 0.137288 0.947144
31.63 -3.64368 -0.134064 0.13823 0.946339
31.635 -3.54923 -0.114958 0.138858 0.95604
31.64 -3.05708 -0.0920166 0.138544 0.950073
31.645 -2.47054 -0.0791622 0.137602 0.948474
31.65 -1.47737 -0.0517507 0.136345 0.947307
31.655 -0.290931 -0.0289989 0.135088 0.956746
31.66 0.596063 -0.0273576 0.13446 0.950587
31.665 0.959429 -0.0392515 0.133832 0.948849
31.67 0.971744 -0.0507514 0.134774 0.94758
31.675 0.564062 -0.0699015 0.137288 0.946658
31.68 -0.277458 -0.093485 0.136973 0.945985
31.685 -1.43495 -0.116361 0.136031 0.955782
31.69 -2.66263 -0.130314 0.130376 0.949885
31.695 -3.67521 -0.132631 0.128491 0.948337
31.7 -4.31369 -0.124667 0.126292 0.947208
31.705 -4.27776 -0.101025 0.12315 0.956673
31.71 -3.95799 -0.0803335 0.119695 0.950534
31.715 -3.16133 -0.0520214 0.115296 0.94881
31.72 -1.75078 -0.0116954 0.109956 0.947552
31.725 -0.658291 -0.00574341 0.105243 0.946638
31.73 0.38211 0.00699994 0.100845 0.94597
31.735 1.0944 0.00623269 0.0970752 0.955771
31.74 1.38133 -0.00447047 0.0983318 0.960163
31.745 1.0644 -0.0273636 0.0939336 0.953079
31.75 0.00698648 -0.0629628 0.0904779 0.950661
31.755 -1.36989 -0.0895052 0.0870221 0.959189
31.76 -2.34871 -0.0853864 0.0782257 0.962653
31.765 -3.41347 -0.0957631 0.0741416 0.954893
31.77 -4.25641 -0.0952911 0.0697434 0.951983
31.775 -4.50267 -0.0745706 0.0647168 0.949867
31.78 -4.37066 -0.0558783 0.0587478 0.948325
31.785 -3.518 -0.021478 0.0521504 0.957488
31.79 -2.11444 0.0194464 0.0452389 0.961417
31.795 -0.719936 0.0425739 0.0383274 0.953993
31.8 0.547149 0.0549419 0.0317301 0.951331
31.805 1.33049 0.0486617 0.0273319 0.959678
31.81 1.52494 0.0327353 0.0241903 0.963012
31.815 1.27221 0.0157832 0.0185354 0.965441
31.82 0.655688 -0.00181479 0.0128805 0.956924
31.825 -0.395742 -0.0274926 0.00785398 0.953467
31.83 -1.57982 -0.0437974 0.00188496 0.950947
31.835 -3.12045 -0.0690956 -0.00879646 0.949112
31.84 -3.86373 -0.0529349 -0.0147655 0.958062
31.845 -3.9834 -0.0289809 -0.021677 0.961835
31.85 -3.62769 -6.16279e-06 -0.0289027 0.954297
31.855 -2.64813 0.0348994 -0.0367566 0.951553
31.86 -1.32043 0.0623905 -0.0446106 0.959839
31.865 0.257721 0.0945261 -0.0524646 0.96313
31.87 1.51337 0.103142 -0.0587478 0.95524
31.875 2.67838 0.112692 -0.0618894 0.952236
31.88 2.9924 0.0885731 -0.0669159 0.95005
31.885 2.91018 0.0741929 -0.0725708 0.948455
31.89 2.15761 0.0425597 -0.0775973 0.957582
31.895 1.02019 0.015831 -0.0826239 0.961482
31.9 -0.472341 -0.0118223 -0.0870221 0.95404
31.905 -2.10277 -0.0334072 -0.0945619 0.951362
31.91 -3.19903 -0.0258803 -0.102102 0.949413
31.915 -3.50963 -0.00533343 -0.107128 0.958277
31.92 -3.35845 0.0208495 -0.113097 0.951705
31.925 -2.55567 0.053976 -0.119695 0.949661
31.93 -1.28497 0.0876584 -0.12692 0.948174
31.935 0.369442 0.122189 -0.133832 0.947089
31.94 2.25333 0.152495 -0.137916 0.9463
31.945 3.46554 0.144743 -0.140743 0.945724
31.95 4.03578 0.129844 -0.145142 0.945306
31.955 4.28528 0.120859 -0.149854 0.944999
31.96 3.76293 0.0879068 -0.152996 0.944778
31.965 2.49953 0.0473845 -0.155823 0.944615
31.97 1.27689 0.0327697 -0.15865 0.944498
31.975 -0.4385 -0.00354051 -0.161164 0.944411
31.98 -2.13406 -0.0213245 -0.166819 0.94435
31.985 -3.13819 -0.00913145 -0.170588 0.944303
31.99 -3.28324 0.0191624 -0.17373 0.944271
31.995 -2.51845 0.0602399 -0.1775 0.944245
32 -1.29451 0.0922505 -0.181584 0.944229
32.005 0.469561 0.132314 -0.185668 0.944215
32.01 2.29585 0.155125 -0.184097 0.944207
32.015 4.05814 0.173644 -0.187239 0.954485
32.02 4.51059 0.158671 -0.189438 0.948942
32.025 4.51059 0.144219 -0.191323 0.947648
32.03 4.51059 0.107525 -0.19258 0.946708
32.035 4.20345 0.0754161 -0.192265 0.946021
32.04 2.57785 0.0352912 -0.191323 0.955808
32.045 0.775652 0.00485342 -0.191323 0.949904
32.05 -0.949781 -0.013578 -0.191323 0.948351
32.055 -2.18104 -0.0105812 -0.195721 0.947218
32.06 -2.67521 0.00605567 -0.196664 0.95668
32.065 -2.05282 0.0522544 -0.198234 0.960825
32.07 -0.742135 0.0941853 -0.198863 0.953561
32.075 0.989528 0.128074 -0.199491 0.951013
32.08 2.49462 0.136799 -0.195407 0.949159
32.085 3.98763 0.152133 -0.194779 0.947806
32.09 4.51059 0.157771 -0.193836 0.957109
32.095 4.51059 0.15164 -0.192894 0.961138
32.1 4.51059 0.121886 -0.191323 0.953789
32.105 4.51059 0.0797742 -0.188181 0.951179
32.11 3.57258 0.0154471 -0.184097 0.94928
32.115 1.44146 -0.0124742 -0.180327 0.95818
32.12 -0.179461 -0.0190231 -0.178442 0.951634
32.125 -1.64794 -0.0309758 -0.178128 0.949609
32.13 -2.19102 -0.00671317 -0.178128 0.948137
32.135 -2.03581 0.0183793 -0.175929 0.947061
32.14 -1.28834 0.0463642 -0.174987 0.956567
32.145 0.654047 0.109933 -0.174044 0.950456
32.15 2.48109 0.12532 -0.167133 0.948754
32.155 4.04948 0.133564 -0.164934 0.947511
32.16 4.51059 0.145711 -0.16242 0.946608
32.165 4.51059 0.132721 -0.159907 0.945948
32.17 4.51059 0.109643 -0.156137 0.945469
32.175 4.51059 0.0710495 -0.151739 0.945118
32.18 4.51059 0.0136031 -0.146084 0.944865
32.185 2.45878 -0.0271434 -0.139801 0.944678
32.19 0.144669 -0.0622434 -0.135403 0.934258
32.195 -1.50452 -0.0596779 -0.132261 0.939697
32.2 -2.14781 -0.0354318 -0.131004 0.940916
32.205 -2.07572 -0.0113934 -0.127235 0.941801
32.21 -1.72982 0.00253409 -0.123465 0.932162
32.215 -0.363078 0.0509098 -0.120951 0.938171
32.22 1.79422 0.101195 -0.117496 0.939804
32.225 3.55535 0.106669 -0.109013 0.940991
32.23 4.51059 0.103119 -0.104615 0.941858
32.235 4.51059 0.123098 -0.100531 0.942487
32.24 4.51059 0.0951556 -0.0958186 0.942948
32.245 4.51059 0.0608349 -0.0904779 0.943282
32.25 4.51059 -0.00436705 -0.0838805 0.943527
32.255 2.65784 -0.0677694 -0.0763407 0.943703
32.26 0.792894 -0.0668046 -0.0703717 0.943834
32.265 -1.05419 -0.0903118 -0.0640885 0.943927
32.27 -1.99469 -0.0721635 -0.063146 0.943997
32.275 -2.34351 -0.057264 -0.0581195 0.944046
32.28 -2.61158 -0.056888 -0.0537212 0.944084
32.285 -1.5932 -0.00242762 -0.0508938 0.954395
32.29 1.03988 0.0802959 -0.0468097 0.948877
32.295 3.12945 0.0849733 -0.0370708 0.9476
32.3 4.44506 0.0728278 -0.0314159 0.946673
32.305 4.51059 0.0860316 -0.0263894 0.956281
32.31 4.51059 0.0692344 -0.0207345 0.950251
32.315 4.51059 0.0459853 -0.0144513 0.948602
32.32 4.51059 -0.0114542 -0.00722566 0.947402
32.325 3.62433 -0.071506 0.00125664 0.946527
32.33 1.12914 -0.112693 0.00973894 0.945892
32.335 -0.969826 -0.127558 0.0163363 0.945426
32.34 -2.78783 -0.139727 0.0185354 0.945089
32.345 -3.48977 -0.112121 0.0241903 0.944841
32.35 -3.96488 -0.108886 0.0292168 0.944663
32.355 -3.87786 -0.0879296 0.033615 0.944531
32.36 -1.77249 0.00296462 0.0367566 0.944437
32.365 0.523255 0.0373396 0.0402124 0.944366
32.37 2.09499 0.0323266 0.0449248 0.944317
32.375 4.08399 0.0658554 0.0524646 0.944279
32.38 4.51059 0.0663511 0.0578053 0.944254
32.385 4.51059 0.0274341 0.0625177 0.944233
32.39 4.51059 -0.00744232 0.0684867 0.94422
32.395 4.51059 -0.0383352 0.0757124 0.944208
32.4 1.92479 -0.133306 0.0838805 0.944202
32.405 -0.831875 -0.166113 0.0904779 0.944195
32.41 -2.94598 -0.170477 0.0917345 0.944192
32.415 -4.37073 -0.164941 0.0977035 0.944188
32.42 -4.51059 -0.149951 0.102102 0.944187
32.425 -4.51059 -0.142832 0.105872 0.944184
32.43 -4.51059 -0.0791023 0.108385 0.954471
32.435 -2.43704 -0.0174625 0.109327 0.948929
32.44 0.259506 0.0335029 0.110898 0.947641
32.445 2.47983 0.0443613 0.11404 0.946701
32.45 4.51059 0.066259 0.120323 0.956304
32.455 4.51059 0.0181914 0.124721 0.950265
32.46 4.51059 -8.93974e-05 0.127549 0.948614
32.465 4.51059 -0.0179245 0.132261 0.947409
32.47 3.33976 -0.0946798 0.137916 0.946534
32.475 -0.155789 -0.189903 0.143885 0.945894
32.48 -2.95474 -0.201865 0.147027 0.94543
32.485 -4.26387 -0.167831 0.146084 0.94509
32.49 -4.51059 -0.176888 0.150482 0.944844
32.495 -4.51059 -0.186792 0.152996 0.944663
32.5 -4.51059 -0.149311 0.154252 0.944533
32.505 -4.51059 -0.0628568 0.154252 0.944436
32.51 -2.24032 0.00815542 0.153938 0.944368
32.515 0.561982 0.0352718 0.154252 0.944316
32.52 3.16723 0.0587272 0.159279 0.944281
32.525 4.51059 0.0284795 0.162734 0.933966
32.53 4.51059 0.00535882 0.164305 0.939487
32.535 4.51059 0.00487696 0.167447 0.94076
32.54 4.2087 -0.0637874 0.171845 0.94169
32.545 1.24643 -0.160103 0.177186 0.932079
32.55 -2.41221 -0.222091 0.180013 0.938112
32.555 -4.51059 -0.22431 0.176872 0.939759
32.56 -4.51059 -0.192963 0.180327 0.940961
32.565 -4.51059 -0.219149 0.181898 0.941834
32.57 -4.51059 -0.196878 0.182212 0.932186
32.575 -4.51059 -0.117811 0.18127 0.938188
32.58 -4.51059 -0.040623 0.179385 0.939816
32.585 -2.45226 0.0189128 0.176243 0.941
32.59 0.78863 0.0512384 0.174673 0.931579
32.595 3.19646 0.0531998 0.179385 0.937745
32.6 3.80388 0.00236318 0.179699 0.939494
32.605 4.51059 0.0151571 0.180013 0.940765
32.61 4.29855 -0.026976 0.181898 0.941694
32.615 1.53483 -0.142596 0.184411 0.932082
32.62 -2.23319 -0.216057 0.185668 0.938114
32.625 -4.51059 -0.248965 0.180013 0.93976
32.63 -4.51059 -0.198491 0.181898 0.940962
32.635 -4.51059 -0.213218 0.182212 0.931548
32.64 -4.51059 -0.215624 0.181584 0.937726
32.645 -4.51059 -0.135145 0.180013 0.939477
32.65 -4.51059 -0.0787128 0.177186 0.940755
32.655 -4.51059 -0.0128753 0.173416 0.941684
32.66 -1.63147 0.0475256 0.168704 0.932077
32.665 1.51318 0.0677326 0.165876 0.938109
32.67 3.11168 0.0375872 0.169332 0.939758
32.675 3.37636 -0.00235549 0.167761 0.940958
32.68 3.48353 -0.0104592 0.16619 0.931548
32.685 1.247 -0.108434 0.164619 0.937723
32.69 -1.83211 -0.172677 0.16242 0.939478
32.695 -4.51059 -0.212216 0.154252 0.940753
32.7 -4.51059 -0.217285 0.151425 0.941684
32.705 -4.51059 -0.170324 0.14954 0.942361
32.71 -4.51059 -0.183919 0.14577 0.942856
32.715 -4.51059 -0.136125 0.141058 0.943215
32.72 -4.51059 -0.0631247 0.135717 0.943478
32.725 -4.51059 -0.0136886 0.129119 0.943668
32.73 -2.66507 0.0537497 0.122836 0.943808
32.735 1.23227 0.1142 0.117181 0.943908
32.74 2.80471 0.0590404 0.118752 0.943983
32.745 3.05991 0.0198011 0.115296 0.944036
32.75 2.79995 -0.000697069 0.111527 0.944076
32.755 0.813056 -0.0796895 0.108385 0.944104
32.76 -1.62284 -0.122291 0.103987 0.944126
32.765 -4.51059 -0.175225 0.0948761 0.94414
32.77 -4.51059 -0.185353 0.0898495 0.933866
32.775 -4.51059 -0.144202 0.0854513 0.939412
32.78 -4.51059 -0.161624 0.0797965 0.940708
32.785 -4.51059 -0.110891 0.0728849 0.941649
32.79 -4.51059 -0.0265593 0.065031 0.942338
32.795 -4.51059 0.00833527 0.0562345 0.942838
32.8 -3.1178 0.0794229 0.0471239 0.932917
32.805 0.694025 0.136212 0.0383274 0.938721
32.81 2.81789 0.110638 0.0370708 0.940204
32.815 3.32751 0.0663703 0.0307876 0.930997
32.82 3.25883 0.04668 0.0238761 0.927038
32.825 1.88309 -0.0106042 0.0175929 0.934437
32.83 -0.441909 -0.0676876 0.0109956 0.937084
32.835 -3.01357 -0.103342 0.00125664 0.93901
32.84 -4.51059 -0.147936 -0.0069115 0.940415
32.845 -4.51059 -0.10834 -0.0131947 0.93115
32.85 -4.51059 -0.106618 -0.0204204 0.937435
32.855 -4.51059 -0.0864616 -0.0285885 0.939266
32.86 -4.51059 0.000274128 -0.037385 0.940601
32.865 -4.51059 0.0450004 -0.047438 0.941572
32.87 -3.24226 0.0994718 -0.0578053 0.942282
32.875 0.325328 0.165557 -0.0688009 0.942796
32.88 2.58321 0.152284 -0.0719425 0.943173
32.885 3.55071 0.123858 -0.0801106 0.943446
32.89 4.03736 0.114614 -0.0882788 0.93336
32.895 3.56295 0.0771795 -0.0955044 0.939043
32.9 1.3208 -0.00546118 -0.102102 0.940439
32.905 -0.992159 -0.0343504 -0.11027 0.941454
32.91 -3.77616 -0.0783564 -0.122208 0.942196
32.915 -4.51059 -0.0664054 -0.130376 0.942733
32.92 -4.51059 -0.0449163 -0.13823 0.943128
32.925 -4.51059 -0.0292715 -0.147341 0.943412
32.93 -4.51059 0.0329143 -0.157394 0.943622
32.935 -4.51059 0.0783543 -0.168704 0.943773
32.94 -2.50148 0.133877 -0.18127 0.943885
32.945 0.735089 0.201721 -0.192894 0.943964
32.95 3.52352 0.221461 -0.196978 0.944024
32.955 4.51059 0.187466 -0.204518 0.933779
32.96 4.51059 0.207349 -0.214257 0.939351
32.965 4.51059 0.149354 -0.222111 0.940661
32.97 4.35127 0.0834545 -0.228394 0.941618
32.975 1.86146 0.0308522 -0.232792 0.942313
32.98 -1.0502 -0.0133421 -0.240018 0.932535
32.985 -2.90262 -0.00312952 -0.250071 0.938442
32.99 -4.22562 0.00230447 -0.256668 0.940001
32.995 -4.51059 0.00084302 -0.264208 0.941135
33 -4.51059 0.0426776 -0.272062 0.941963
33.005 -4.24769 0.0977452 -0.282115 0.942564
33.01 -1.97269 0.164008 -0.293111 0.943004
33.015 1.50944 0.247579 -0.30285 0.943322
33.02 3.57225 0.228078 -0.307562 0.943557
33.025 4.51059 0.215634 -0.314159 0.943725
33.03 4.51059 0.249166 -0.322013 0.933564
33.035 4.51059 0.219696 -0.329239 0.939191
33.04 4.51059 0.176209 -0.333951 0.940547
33.045 4.51059 0.0923967 -0.337721 0.931247
33.05 2.09467 0.0566974 -0.340234 0.937506
33.055 0.183773 0.0541216 -0.344004 0.939317
33.06 -1.37839 0.0482939 -0.352173 0.940639
33.065 -1.81603 0.0803842 -0.357199 0.941599
33.07 -2.2404 0.082763 -0.361597 0.932015
33.075 -2.05823 0.100909 -0.36631 0.938063
33.08 -0.742704 0.155996 -0.370708 0.939726
33.085 1.73309 0.223611 -0.375106 0.940934
33.09 4.155 0.250175 -0.37385 0.93153
33.095 4.51059 0.21745 -0.375106 0.927424
33.1 4.51059 0.222582 -0.378876 0.934721
33.105 4.51059 0.230782 -0.380761 0.937288
33.11 4.51059 0.192674 -0.381703 0.939161
33.115 4.51059 0.125736 -0.381389 0.930237
33.12 4.19617 0.0997304 -0.379819 0.926484
33.125 2.46652 0.0818409 -0.378248 0.934034
33.13 0.869947 0.064244 -0.377305 0.93679
33.135 0.394645 0.094695 -0.379819 0.928509
33.14 0.609898 0.117293 -0.382018 0.935512
33.145 0.79247 0.117272 -0.377305 0.937864
33.15 1.27662 0.132001 -0.376991 0.939581
33.155 2.92539 0.186757 -0.37542 0.940828
33.16 4.51059 0.207911 -0.371336 0.931453
33.165 4.51059 0.199202 -0.368823 0.937655
33.17 4.51059 0.17868 -0.365681 0.939428
33.175 4.51059 0.165274 -0.362226 0.930432
33.18 4.51059 0.13897 -0.357513 0.926626
33.185 4.51059 0.111252 -0.351858 0.934138
33.19 3.98782 0.0705366 -0.345575 0.936866
33.195 2.7454 0.0639316 -0.338664 0.938852
33.2 1.64781 0.0505343 -0.332381 0.930013
33.205 1.00768 0.0556751 -0.327354 0.92632
33.21 1.32298 0.0877198 -0.322013 0.933917
33.215 1.95091 0.10232 -0.315416 0.936703
33.22 2.66951 0.109134 -0.309133 0.928448
33.225 3.91164 0.136454 -0.30285 0.92518
33.23 4.51059 0.154996 -0.295624 0.933086
33.235 4.51059 0.137949 -0.289027 0.936098
33.24 4.51059 0.11869 -0.282115 0.938294
33.245 4.51059 0.0935164 -0.273947 0.929606
33.25 4.51059 0.0698409 -0.26515 0.926024
33.255 4.50591 0.043935 -0.255726 0.933701
33.26 3.39293 0.0267711 -0.245358 0.936546
33.265 2.5854 0.018121 -0.235619 0.928333
33.27 1.52166 -0.00167763 -0.225881 0.935382
33.275 0.952097 0.00273165 -0.217398 0.937771
33.28 1.16605 0.0267236 -0.207659 0.939511
33.285 1.90766 0.0491358 -0.19792 0.940779
33.29 2.80404 0.0575189 -0.188181 0.931417
33.295 3.53791 0.0618292 -0.1775 0.937629
33.3 4.38953 0.0697489 -0.167133 0.939408
33.305 4.51059 0.0623105 -0.156451 0.940704
33.31 4.51059 0.035032 -0.145456 0.931361
33.315 4.51059 0.0145017 -0.133832 0.937588
33.32 3.59248 -0.0197147 -0.12158 0.939378
33.325 2.50795 -0.0408352 -0.109327 0.940682
33.33 1.35172 -0.0613529 -0.0973894 0.941632
33.335 0.481484 -0.0700219 -0.0857655 0.932038
33.34 -0.484883 -0.0820708 -0.0741416 0.938081
33.345 -1.23903 -0.0864826 -0.0666018 0.939737
33.35 -1.19493 -0.0615755 -0.0584336 0.940944
33.355 -0.338419 -0.0296628 -0.0490088 0.931536
33.36 0.76956 -0.00641356 -0.0395841 0.937716
33.365 1.50084 -0.0136711 -0.0257611 0.939471
33.37 2.37294 -0.00127359 -0.0175929 0.94075
33.375 2.94135 -0.00727105 -0.0084823 0.941682
33.38 2.93389 -0.0346257 0.00219911 0.932074
33.385 2.8049 -0.0370379 0.0113097 0.938107
33.39 2.44646 -0.0540447 0.0213628 0.939756
33.395 1.5145 -0.0868852 0.0317301 0.940958
33.4 0.412601 -0.112339 0.0417832 0.931547
33.405 -0.8025 -0.127051 0.0515221 0.937723
33.41 -1.64774 -0.126777 0.0565487 0.939477
33.415 -1.94306 -0.113774 0.0659734 0.940754
33.42 -1.77198 -0.0971913 0.0744557 0.941684
33.425 -1.01722 -0.0724155 0.0826239 0.932076
33.43 -0.441905 -0.0683736 0.0901637 0.938109
33.435 0.223875 -0.0589554 0.0970752 0.939758
33.44 1.07293 -0.0442639 0.103987 0.940959
33.445 1.83285 -0.0453612 0.115925 0.931547
33.45 2.03366 -0.0572076 0.122208 0.937724
33.455 1.77038 -0.0786047 0.129119 0.939477
33.46 1.12066 -0.100662 0.135403 0.940754
33.465 0.199502 -0.121932 0.141686 0.941685
33.47 -0.970534 -0.144697 0.147655 0.942362
33.475 -1.79025 -0.14219 0.148597 0.942856
33.48 -2.34934 -0.139961 0.153624 0.943216
33.485 -2.6804 -0.135408 0.158022 0.943478
33.49 -2.46762 -0.113971 0.161478 0.943669
33.495 -1.92129 -0.0953736 0.165248 0.943808
33.5 -1.33778 -0.0860242 0.169018 0.943909
33.505 -0.457311 -0.0654925 0.172788 0.943983
33.51 0.0677563 -0.0703685 0.176872 0.944037
33.515 0.470082 -0.0698886 0.180956 0.944076
33.52 0.630819 -0.0736267 0.184726 0.954391
33.525 0.0536415 -0.107984 0.188181 0.948872
33.53 -0.61361 -0.118448 0.191951 0.947598
33.535 -1.66391 -0.142675 0.194779 0.946671
33.54 -2.52408 -0.145195 0.197292 0.956281
33.545 -2.80273 -0.12916 0.199177 0.950249
33.55 -3.28534 -0.138688 0.200119 0.948602
33.555 -3.5592 -0.132461 0.200748 0.947401
33.56 -3.39807 -0.113505 0.200434 0.946527
33.565 -2.39852 -0.0717829 0.199177 0.94589
33.57 -1.16483 -0.0471877 0.198549 0.945426
33.575 -0.18048 -0.0415781 0.197606 0.945088
33.58 0.469613 -0.0434929 0.196978 0.944842
33.585 1.00543 -0.0406064 0.196978 0.944662
33.59 0.91188 -0.0620556 0.19792 0.944532
33.595 0.337178 -0.0845794 0.198863 0.944436
33.6 -0.591383 -0.10665 0.198863 0.944367
33.605 -1.93318 -0.134637 0.198234 0.944317
33.61 -3.18107 -0.143219 0.192894 0.94428
33.615 -4.15371 -0.143257 0.191951 0.944253
33.62 -4.51059 -0.13381 0.189438 0.95452
33.625 -4.51059 -0.119913 0.186925 0.948963
33.63 -4.32479 -0.0810291 0.183469 0.947663
33.635 -3.22535 -0.049435 0.179385 0.946715
33.64 -1.70085 -0.0152132 0.174987 0.95631
33.645 -0.42804 -0.00329486 0.170903 0.950269
33.65 0.368161 -0.00792319 0.167761 0.948613
33.655 0.880189 -0.00997834 0.164305 0.947408
33.66 0.857656 -0.0272197 0.162734 0.946529
33.665 0.182339 -0.0560749 0.161792 0.956176
33.67 -0.72063 -0.0742639 0.159593 0.960456
33.675 -2.12751 -0.104561 0.154566 0.953289
33.68 -3.50156 -0.116019 0.147027 0.950813
33.685 -4.34628 -0.108564 0.143257 0.959297
33.69 -4.51059 -0.102913 0.13823 0.962729
33.695 -4.51059 -0.0813427 0.132889 0.954945
33.7 -4.51059 -0.048662 0.126606 0.95202
33.705 -3.31034 -0.00527138 0.119381 0.94989
33.71 -1.4489 0.0386887 0.112469 0.948337
33.715 0.208292 0.054763 0.106186 0.947207
33.72 1.08733 0.0412515 0.100845 0.956671
33.725 1.58654 0.0353317 0.0995885 0.96082
33.73 1.6038 0.0207206 0.0942478 0.953555
33.735 1.08728 -0.00251576 0.0895354 0.951011
33.74 -0.074385 -0.0374159 0.084823 0.959441
33.745 -1.69243 -0.0708412 0.0797965 0.962839
33.75 -3.35717 -0.0859503 0.0694292 0.955026
33.755 -4.47292 -0.078088 0.063146 0.952082
33.76 -4.51059 -0.0699538 0.0568628 0.949936
33.765 -4.51059 -0.0441787 0.0505796 0.948375
33.77 -4.41009 0.000249344 0.043354 0.957521
33.775 -2.9661 0.0385367 0.0351858 0.96144
33.78 -1.04833 0.0850394 0.0270177 0.954006
33.785 0.618012 0.0980301 0.019792 0.95134
33.79 1.942 0.101974 0.0160221 0.959681
33.795 2.77672 0.0971784 0.0113097 0.963014
33.8 3.1654 0.0872338 0.00534071 0.955153
33.805 2.53157 0.0457397 0.000314159 0.952175
33.81 1.17818 0.00615409 -0.00502655 0.950003
33.815 -0.386228 -0.0189953 -0.00973894 0.948424
33.82 -1.95546 -0.0355667 -0.0175929 0.947271
33.825 -3.48919 -0.0531408 -0.0248186 0.956719
33.83 -4.21801 -0.0323442 -0.0304734 0.960853
33.835 -4.44759 -0.00998619 -0.0367566 0.953581
33.84 -3.6823 0.0344432 -0.0439823 0.951028
33.845 -2.1347 0.0783756 -0.0515221 0.959456
33.85 -0.522999 0.105424 -0.0587478 0.962847
33.855 1.49812 0.147585 -0.0656593 0.955034
33.86 3.22571 0.156641 -0.0675442 0.952086
33.865 4.15501 0.140714 -0.0719425 0.949941
33.87 4.42634 0.121046 -0.076969 0.948376
33.875 3.90285 0.0878278 -0.0807389 0.957524
33.88 2.78987 0.0523716 -0.0838805 0.951154
33.885 1.21265 0.0175691 -0.086708 0.949262
33.89 -1.14283 -0.0354043 -0.0895354 0.947881
33.895 -2.90848 -0.0378438 -0.0980177 0.957164
33.9 -3.7101 -0.0139829 -0.102102 0.961177
33.905 -4.01451 0.00563439 -0.105558 0.953818
33.91 -3.64604 0.0343375 -0.11027 0.9512
33.915 -2.20771 0.0891359 -0.115296 0.949295
33.92 -0.347305 0.127375 -0.120323 0.947905
33.925 1.92637 0.168562 -0.124407 0.946895
33.93 4.15048 0.191979 -0.124093 0.956443
33.935 4.51059 0.158172 -0.126292 0.960655
33.94 4.51059 0.162351 -0.129434 0.953435
33.945 4.51059 0.128857 -0.131633 0.950923
33.95 4.51059 0.0834456 -0.132575 0.959378
33.955 2.70487 0.0200962 -0.131947 0.962793
33.96 0.167036 -0.0243757 -0.132575 0.965278
33.965 -1.7061 -0.0243545 -0.135088 0.956805
33.97 -3.02423 -0.0198365 -0.139487 0.953376
33.975 -3.62599 -0.00503507 -0.140429 0.961167
33.98 -2.83285 0.0532946 -0.142942 0.964094
33.985 -1.40946 0.0936497 -0.144513 0.966228
33.99 0.537664 0.13619 -0.146398 0.967781
33.995 2.55816 0.162094 -0.142942 0.968914
34 4.1025 0.164042 -0.143257 0.969737
34.005 4.51059 0.176788 -0.143571 0.97034
34.01 4.51059 0.159531 -0.143571 0.970776
34.015 4.51059 0.134446 -0.142628 0.971096
34.02 4.51059 0.0904348 -0.140743 0.961041
34.025 3.45654 0.00427756 -0.137916 0.956464
34.03 0.654122 -0.0372679 -0.135088 0.953128
34.035 -0.951277 -0.0192735 -0.134774 0.960986
34.04 -2.5418 -0.0375217 -0.137288 0.963962
34.045 -2.89131 -0.000726468 -0.136345 0.966132
34.05 -2.56928 0.0266416 -0.135403 0.967711
34.055 -1.78053 0.0547869 -0.134774 0.958577
34.06 0.317784 0.121817 -0.135088 0.964953
34.065 2.34877 0.144379 -0.131947 0.966854
34.07 4.43112 0.168947 -0.127549 0.968237
34.075 4.51059 0.159229 -0.12535 0.969247
34.08 4.51059 0.138529 -0.123779 0.959693
34.085 4.51059 0.116718 -0.120951 0.955483
34.09 4.51059 0.0744343 -0.117181 0.952416
34.095 3.97754 0.00456485 -0.112469 0.960468
34.1 1.35341 -0.04223 -0.107442 0.963588
34.105 -0.489116 -0.0421416 -0.104615 0.965861
34.11 -2.2621 -0.0618632 -0.103673 0.967517
34.115 -2.64277 -0.0206153 -0.101788 0.968723
34.12 -2.21701 0.0121039 -0.0995885 0.969601
34.125 -1.33942 0.0384293 -0.0964469 0.970241
34.13 0.291302 0.0834997 -0.0942478 0.970708
34.135 2.50877 0.126628 -0.0892212 0.960761
34.14 4.47443 0.137975 -0.082938 0.956261
34.145 4.51059 0.143383 -0.078854 0.952983
34.15 4.51059 0.117876 -0.0750841 0.960882
34.155 4.51059 0.0677684 -0.0706858 0.963889
34.16 4.51059 0.0578692 -0.0653451 0.96608
34.165 4.02593 -0.0213102 -0.0590619 0.95739
34.17 1.42784 -0.0692876 -0.0521504 0.953806
34.175 -0.542533 -0.073117 -0.047438 0.961481
34.18 -2.24209 -0.0864704 -0.0458673 0.964326
34.185 -2.65477 -0.0499856 -0.041469 0.956109
34.19 -2.53686 -0.0305554 -0.0367566 0.952871
34.195 -1.80775 -0.00136675 -0.0329867 0.950511
34.2 0.107905 0.0596456 -0.0298451 0.948793
34.205 2.21105 0.0894319 -0.0251327 0.94754
34.21 3.99815 0.100423 -0.0160221 0.956915
34.215 4.51059 0.113516 -0.0109956 0.960996
34.22 4.51059 0.0884753 -0.00596903 0.953686
34.225 4.51059 0.0448153 0 0.951104
34.23 4.51059 0.0181962 0.0069115 0.959512
34.235 4.11243 -0.0337637 0.0150796 0.962888
34.24 1.78665 -0.0890045 0.0235619 0.955063
34.245 -0.800969 -0.12918 0.0301593 0.952108
34.25 -2.70016 -0.129284 0.0320442 0.949957
34.255 -3.30539 -0.0949818 0.0383274 0.948387
34.26 -3.33202 -0.0755726 0.0439823 0.957533
34.265 -2.61097 -0.0415698 0.0486947 0.961446
34.27 -0.874095 0.013711 0.0524646 0.964299
34.275 1.30891 0.0524655 0.0565487 0.95609
34.28 3.03436 0.0587197 0.0666018 0.963144
34.285 4.51059 0.0754451 0.0716283 0.965534
34.29 4.51059 0.0733462 0.076969 0.967277
34.295 4.51059 0.0248936 0.0826239 0.958259
34.3 4.51059 -0.00624901 0.0895354 0.954438
34.305 4.24949 -0.0601385 0.0973894 0.951652
34.31 1.45256 -0.133862 0.106186 0.949624
34.315 -1.2909 -0.165024 0.113411 0.958431
34.32 -3.07546 -0.157667 0.115296 0.962103
34.325 -3.87289 -0.135727 0.122208 0.964776
34.33 -4.50524 -0.136814 0.127863 0.956439
34.335 -4.35476 -0.107503 0.132261 0.963396
34.34 -2.90002 -0.0451809 0.136031 0.96572
34.345 -0.690623 0.00817815 0.139173 0.96741
34.35 1.50801 0.0319127 0.143257 0.958358
34.355 3.55543 0.0481595 0.152053 0.954508
34.36 4.51059 0.0470006 0.15708 0.951705
34.365 4.51059 -0.00250702 0.161792 0.949661
34.37 4.36921 -0.0450705 0.167133 0.95846
34.375 3.20311 -0.0722692 0.174044 0.962122
34.38 1.23309 -0.130755 0.180956 0.954506
34.385 -0.922848 -0.163039 0.187553 0.951701
34.39 -3.36031 -0.198816 0.18881 0.959947
34.395 -4.51059 -0.199686 0.193522 0.963205
34.4 -4.51059 -0.162684 0.19792 0.965581
34.405 -4.51059 -0.147181 0.201376 0.957023
34.41 -4.51059 -0.0834988 0.203575 0.953537
34.415 -2.54891 -0.0362042 0.204832 0.950996
34.42 -0.31848 -0.00239344 0.206403 0.949147
34.425 1.89646 0.0262871 0.208602 0.958083
34.43 4.01886 0.0464666 0.215513 0.96185
34.435 4.41273 -0.0122422 0.218969 0.954305
34.44 4.46568 -0.0253134 0.222739 0.951557
34.445 3.60627 -0.063953 0.227451 0.95984
34.45 0.89669 -0.162286 0.232792 0.963129
34.455 -1.40394 -0.179712 0.236562 0.965523
34.46 -3.68571 -0.206812 0.235934 0.956983
34.465 -4.51059 -0.227687 0.239389 0.953506
34.47 -4.51059 -0.190315 0.241903 0.950975
34.475 -4.51059 -0.175489 0.243788 0.959416
34.48 -4.51059 -0.133922 0.244416 0.96282
34.485 -4.51059 -0.0899573 0.243788 0.965298
34.49 -2.63296 -0.0122957 0.241903 0.967106
34.495 -0.465912 -0.00614566 0.240332 0.958134
34.5 1.67302 0.0208661 0.240018 0.964633
34.505 3.12605 0.0142894 0.24473 0.966618
34.51 3.19516 -0.0318162 0.245987 0.968068
34.515 3.19499 -0.0364787 0.246615 0.969121
34.52 1.51232 -0.117301 0.247872 0.959604
34.525 -1.28665 -0.18602 0.248814 0.955415
34.53 -3.80889 -0.204674 0.244102 0.962652
34.535 -4.51059 -0.2186 0.244102 0.965176
34.54 -4.51059 -0.203078 0.244416 0.967016
34.545 -4.51059 -0.181648 0.243159 0.968355
34.55 -4.51059 -0.162307 0.241588 0.969332
34.555 -4.51059 -0.104323 0.238761 0.970042
34.56 -4.51059 -0.0525404 0.234677 0.970561
34.565 -2.64822 0.00214332 0.230279 0.970937
34.57 -0.486747 0.010902 0.226509 0.971214
34.575 1.44075 0.0284864 0.223367 0.971413
34.58 2.63074 0.0155626 0.225566 0.961274
34.585 2.41463 -0.033614 0.22431 0.956632
34.59 1.86518 -0.0502018 0.222111 0.963538
34.595 -0.485843 -0.138572 0.219911 0.965821
34.6 -2.81793 -0.165836 0.216456 0.967487
34.605 -4.51059 -0.185821 0.208288 0.968698
34.61 -4.51059 -0.172381 0.205774 0.969582
34.615 -4.51059 -0.155981 0.202004 0.98051
34.62 -4.51059 -0.162026 0.197606 0.975441
34.625 -4.51059 -0.0892759 0.192265 0.974492
34.63 -4.51059 -0.0498135 0.186296 0.973804
34.635 -3.38227 0.0220246 0.179385 0.973299
34.64 -0.921798 0.043586 0.173102 0.972934
34.645 0.931267 0.0491229 0.168075 0.962381
34.65 2.09797 0.0393667 0.168389 0.967726
34.655 2.10093 0.00170283 0.163677 0.968872
34.66 1.87245 -0.00909645 0.159279 0.969709
34.665 0.314086 -0.0719055 0.155509 0.970317
34.67 -2.28821 -0.13736 0.151739 0.970762
34.675 -4.51059 -0.156803 0.140743 0.981369
