# Generated from ../data/13JUL2013/024.dat
time T_s gyro_x steer v
21 4.51059 0.1439 -0.0958186 0.949946
21.005 4.51059 0.127155 -0.0970752 0.948379
21.01 4.51059 0.0861203 -0.0977035 0.947241
21.015 4.51059 0.033003 -0.0967611 0.956695
21.02 2.82214 -0.0394229 -0.0951903 0.950552
21.025 0.314727 -0.0684994 -0.0942478 0.948821
21.03 -1.85199 -0.0833076 -0.0951903 0.947562
21.035 -4.03673 -0.107236 -0.098646 0.946643
21.04 -4.51059 -0.057768 -0.098646 0.945976
21.045 -4.33816 -0.0313805 -0.0999026 0.955773
21.05 -3.34475 0.0134036 -0.102102 0.949881
21.055 -1.52071 0.0638541 -0.104929 0.948332
21.06 1.23496 0.127933 -0.107128 0.947206
21.065 3.7914 0.150395 -0.103987 0.946383
21.07 4.51059 0.143134 -0.103987 0.945787
21.075 4.51059 0.131073 -0.104929 0.945349
21.08 4.51059 0.11694 -0.105243 0.945033
21.085 4.51059 0.0620345 -0.103987 0.944801
21.09 4.23131 -0.0236313 -0.101788 0.944634
21.095 1.44899 -0.0613281 -0.098646 0.954796
21.1 -1.07676 -0.0870011 -0.0977035 0.949168
21.105 -3.4609 -0.108339 -0.101473 0.947813
21.11 -4.07981 -0.0574592 -0.101159 0.946828
21.115 -4.36585 -0.0500843 -0.100845 0.956394
21.12 -3.68657 -0.00374113 -0.102102 0.950333
21.125 -1.85911 0.056883 -0.103987 0.948662
21.13 0.936 0.122683 -0.105558 0.947446
21.135 3.68395 0.152177 -0.101473 0.946558
21.14 4.51059 0.135112 -0.100845 0.945914
21.145 4.51059 0.133475 -0.101473 0.945442
21.15 4.51059 0.120416 -0.101159 0.945101
21.155 4.51059 0.0780979 -0.0992743 0.94485
21.16 4.51059 -0.0114059 -0.0964469 0.944669
21.165 2.10877 -0.0653501 -0.0923628 0.944536
21.17 -0.714184 -0.0952059 -0.090792 0.94444
21.175 -3.51634 -0.126536 -0.0933053 0.944369
21.18 -4.28102 -0.0693115 -0.092677 0.944319
21.185 -4.51059 -0.0660261 -0.0923628 0.94428
21.19 -4.51059 -0.0289675 -0.092677 0.933968
21.195 -2.63522 0.0446245 -0.0942478 0.939486
21.2 0.313746 0.114976 -0.0955044 0.940762
21.205 3.14906 0.144409 -0.0917345 0.941689
21.21 4.51059 0.147713 -0.0901637 0.932081
21.215 4.51059 0.14713 -0.0904779 0.938111
21.22 4.51059 0.130057 -0.0901637 0.93976
21.225 4.51059 0.10652 -0.0882788 0.940959
21.23 4.51059 0.0159206 -0.0854513 0.941835
21.235 3.8009 -0.0566969 -0.0816814 0.932185
21.24 0.567226 -0.0944278 -0.0775973 0.938189
21.245 -2.99664 -0.148905 -0.0772832 0.939815
21.25 -4.16664 -0.0852838 -0.0807389 0.941001
21.255 -4.40367 -0.054113 -0.0782257 0.931577
21.26 -4.51059 -0.0513808 -0.0782257 0.937747
21.265 -3.77523 -0.0106466 -0.0794823 0.939493
21.27 -0.6966 0.102131 -0.0810531 0.940767
21.275 2.79221 0.157529 -0.0807389 0.941692
21.28 4.51059 0.138543 -0.0750841 0.932083
21.285 4.51059 0.153317 -0.0750841 0.938113
21.29 4.51059 0.121948 -0.0747699 0.939762
21.295 4.51059 0.117452 -0.0722566 0.94096
21.3 4.51059 0.0475721 -0.0694292 0.931549
21.305 4.51059 -0.0447086 -0.065031 0.937724
21.31 1.55828 -0.0961423 -0.0600044 0.939479
21.315 -2.17908 -0.150962 -0.057177 0.940754
21.32 -4.40058 -0.127617 -0.0609469 0.941686
21.325 -4.51059 -0.0867112 -0.0587478 0.932076
21.33 -4.51059 -0.0631354 -0.0578053 0.93811
21.335 -4.51059 -0.0551843 -0.0581195 0.939757
21.34 -2.56523 0.0629239 -0.0600044 0.940959
21.345 1.22668 0.142726 -0.0612611 0.931547
21.35 4.51059 0.165166 -0.0556062 0.937724
21.355 4.51059 0.160388 -0.0540354 0.939476
21.36 4.51059 0.144602 -0.0537212 0.940755
21.365 4.51059 0.121983 -0.0521504 0.941684
21.37 4.51059 0.0645668 -0.0490088 0.932077
21.375 4.51059 -0.00482223 -0.0446106 0.938108
21.38 2.88803 -0.107242 -0.0395841 0.939758
21.385 -1.22757 -0.156439 -0.0355 0.930672
21.39 -3.96196 -0.141574 -0.0389557 0.926801
21.395 -4.51059 -0.105196 -0.0380133 0.934265
21.4 -4.51059 -0.0855235 -0.0358142 0.936958
21.405 -4.51059 -0.0705188 -0.0361283 0.938918
21.41 -3.807 0.0207321 -0.0367566 0.940348
21.415 0.208574 0.132593 -0.0389557 0.931101
21.42 3.52427 0.147839 -0.0326726 0.9374
21.425 4.51059 0.169861 -0.0307876 0.93924
21.43 4.51059 0.132796 -0.0314159 0.930296
21.435 4.51059 0.155672 -0.029531 0.926525
21.44 4.51059 0.0791351 -0.0273319 0.934066
21.445 4.51059 0.0100843 -0.0238761 0.936811
21.45 4.51059 -0.0533127 -0.0191637 0.938814
21.455 0.0955388 -0.175295 -0.0141372 0.929983
21.46 -2.86008 -0.141374 -0.0163363 0.926299
21.465 -4.49781 -0.118777 -0.0160221 0.9339
21.47 -4.51059 -0.105203 -0.013823 0.936692
21.475 -4.51059 -0.07967 -0.0128805 0.928438
21.48 -4.51059 -0.0318272 -0.0135088 0.93546
21.485 -1.33006 0.0922959 -0.0150796 0.937827
21.49 2.45358 0.146369 -0.0141372 0.939553
21.495 4.51059 0.166361 -0.00785398 0.940808
21.5 4.51059 0.128424 -0.00722566 0.941725
21.505 4.51059 0.136742 -0.00659734 0.932105
21.51 4.51059 0.105453 -0.00376991 0.938131
21.515 4.51059 0.0293423 -0.000314159 0.939772
21.52 4.51059 -0.035668 0.00439823 0.930684
21.525 1.18424 -0.168593 0.0100531 0.937094
21.53 -2.52992 -0.169255 0.0128805 0.939019
21.535 -4.31207 -0.127991 0.00973894 0.940419
21.54 -4.51059 -0.131594 0.0125664 0.941442
21.545 -4.51059 -0.120534 0.013823 0.942184
21.55 -4.51059 -0.0657044 0.0135088 0.942728
21.555 -3.05418 0.0613604 0.0122522 0.943121
21.56 0.928929 0.12881 0.0113097 0.94341
21.565 4.51059 0.167399 0.0175929 0.933332
21.57 4.51059 0.141527 0.0201062 0.939025
21.575 4.51059 0.136135 0.0207345 0.940424
21.58 4.51059 0.112926 0.0232478 0.941445
21.585 4.51059 0.0353108 0.0273319 0.942186
21.59 4.51059 -0.029827 0.0323584 0.932442
21.595 2.73015 -0.134642 0.0380133 0.928089
21.6 -2.29801 -0.212743 0.0424115 0.935206
21.605 -4.51059 -0.155631 0.0380133 0.927356
21.61 -4.51059 -0.140993 0.0408407 0.924385
21.615 -4.51059 -0.145189 0.0427257 0.932506
21.62 -4.51059 -0.115577 0.0427257 0.935677
21.625 -4.51059 0.0168544 0.0427257 0.937986
21.63 -1.15607 0.0959845 0.0402124 0.939669
21.635 2.90227 0.145204 0.041469 0.930607
21.64 4.51059 0.137543 0.0480664 0.926754
21.645 4.51059 0.116158 0.0483805 0.934232
21.65 4.51059 0.124569 0.0508938 0.926648
21.655 4.51059 0.0541827 0.0543496 0.923868
21.66 4.51059 -0.0261616 0.0587478 0.93213
21.665 3.04856 -0.129028 0.0640885 0.935402
21.67 -2.43779 -0.236207 0.0688009 0.937786
21.675 -4.51059 -0.179822 0.0640885 0.939522
21.68 -4.51059 -0.137632 0.0675442 0.930502
21.685 -4.51059 -0.154741 0.069115 0.936963
21.69 -4.51059 -0.137965 0.0694292 0.938922
21.695 -4.51059 -0.0116274 0.0684867 0.930064
21.7 -2.18049 0.0803807 0.0662876 0.936643
21.705 2.26307 0.145239 0.0662876 0.93869
21.71 4.51059 0.156764 0.0722566 0.940181
21.715 4.51059 0.0987219 0.0741416 0.941267
21.72 4.51059 0.112209 0.0750841 0.942058
21.725 4.51059 0.057257 0.0772832 0.932348
21.73 4.51059 -0.0283904 0.0813672 0.938307
21.735 3.51176 -0.11255 0.0863938 0.939902
21.74 -1.84634 -0.23131 0.090792 0.941064
21.745 -4.51059 -0.196918 0.0860796 0.94191
21.75 -4.51059 -0.152908 0.0882788 0.942527
21.755 -4.51059 -0.159686 0.0898495 0.942976
21.76 -4.51059 -0.146415 0.0895354 0.943303
21.765 -4.51059 -0.0145815 0.0885929 0.943541
21.77 -2.33528 0.070152 0.0860796 0.943715
21.775 1.86245 0.129191 0.0854513 0.943842
21.78 4.51059 0.164662 0.0914203 0.943934
21.785 4.51059 0.0875765 0.0933053 0.944001
21.79 4.51059 0.118347 0.0948761 0.94405
21.795 4.51059 0.0554689 0.0977035 0.944085
21.8 4.51059 -0.0495366 0.102102 0.944111
21.805 3.0241 -0.129956 0.107442 0.94413
21.81 -2.35824 -0.24405 0.111212 0.944144
21.815 -4.51059 -0.224761 0.106186 0.944154
21.82 -4.51059 -0.165628 0.109013 0.944161
21.825 -4.51059 -0.196934 0.11027 0.944167
21.83 -4.51059 -0.174275 0.11027 0.944171
21.835 -4.51059 -0.0342839 0.109013 0.944173
21.84 -4.26512 0.0405824 0.106186 0.944175
21.845 0.512296 0.126379 0.103673 0.944177
21.85 4.51059 0.170465 0.109327 0.944178
21.855 4.51059 0.0705936 0.112469 0.944179
21.86 4.51059 0.0978104 0.111527 0.944179
21.865 4.51059 0.079027 0.113097 0.933894
21.87 4.51059 -0.0462732 0.115925 0.939433
21.875 3.13715 -0.126882 0.120323 0.940722
21.88 -2.5304 -0.257357 0.123465 0.941661
21.885 -4.51059 -0.236389 0.117496 0.942345
21.89 -4.51059 -0.147965 0.120951 0.942844
21.895 -4.51059 -0.195178 0.121265 0.943207
21.9 -4.51059 -0.181408 0.120951 0.943471
21.905 -4.51059 -0.0609754 0.119066 0.943664
21.91 -4.51059 0.0292927 0.116553 0.943804
21.915 -0.145321 0.114956 0.113411 0.943907
21.92 4.51059 0.171012 0.115296 0.943981
21.925 4.51059 0.0731453 0.120951 0.944035
21.93 4.51059 0.0820314 0.119066 0.944075
21.935 4.51059 0.0602099 0.120637 0.944104
21.94 4.51059 -0.0443185 0.123779 0.944125
21.945 2.3017 -0.14321 0.127549 0.94414
21.95 -2.91144 -0.249779 0.129434 0.944151
21.955 -4.51059 -0.254617 0.122836 0.944159
21.96 -4.51059 -0.167155 0.125035 0.954451
21.965 -4.51059 -0.215957 0.124721 0.948916
21.97 -4.51059 -0.188882 0.12315 0.947631
21.975 -4.51059 -0.0612623 0.120637 0.946694
21.98 -4.51059 0.0153583 0.117496 0.956298
21.985 -1.29231 0.101274 0.113726 0.950262
21.99 3.3878 0.15672 0.112155 0.948611
21.995 4.51059 0.0760438 0.117496 0.947408
22 4.51059 0.085395 0.116867 0.946532
22.005 4.51059 0.0379804 0.11781 0.945894
22.01 4.51059 -0.058099 0.120323 0.945428
22.015 1.14447 -0.151086 0.123779 0.94509
22.02 -4.14452 -0.265332 0.123779 0.944843
22.025 -4.51059 -0.238553 0.117181 0.944663
22.03 -4.51059 -0.202345 0.119381 0.944532
22.035 -4.51059 -0.233245 0.118124 0.944437
22.04 -4.51059 -0.173895 0.115296 0.944367
22.045 -4.51059 -0.061415 0.111841 0.944317
22.05 -4.51059 0.0324834 0.107128 0.94428
22.055 -1.54653 0.107486 0.102416 0.933964
22.06 3.03215 0.149481 0.0999026 0.939482
22.065 4.51059 0.0819857 0.104615 0.940756
22.07 4.51059 0.0846597 0.103358 0.941683
22.075 4.51059 0.0182565 0.10273 0.932073
22.08 4.19716 -0.0541437 0.103987 0.938104
22.085 -0.126203 -0.179894 0.105558 0.939752
22.09 -4.51059 -0.263276 0.0989602 0.940952
22.095 -4.51059 -0.226965 0.0958186 0.941827
22.1 -4.51059 -0.198071 0.0955044 0.932177
22.105 -4.51059 -0.233158 0.0929911 0.938181
22.11 -4.51059 -0.151519 0.0889071 0.939807
22.115 -4.51059 -0.0387346 0.0838805 0.940993
22.12 -4.51059 0.0344124 0.0785398 0.931569
22.125 -1.56294 0.116439 0.0728849 0.937738
22.13 2.72844 0.146128 0.0700575 0.939484
22.135 4.51059 0.0924668 0.0725708 0.940758
22.14 4.51059 0.0929387 0.0703717 0.941684
22.145 4.51059 0.0282238 0.069115 0.94236
22.15 3.52717 -0.0655671 0.0688009 0.942854
22.155 -0.107158 -0.147581 0.0684867 0.943215
22.16 -4.51059 -0.26834 0.0625177 0.943476
22.165 -4.51059 -0.212309 0.057177 0.943669
22.17 -4.51059 -0.163427 0.0562345 0.943807
22.175 -4.51059 -0.224091 0.0521504 0.943909
22.18 -4.51059 -0.119002 0.0471239 0.943982
22.185 -4.51059 -0.0310491 0.0411549 0.944037
22.19 -4.51059 0.038077 0.0342434 0.944075
22.195 -1.21372 0.139994 0.0273319 0.954391
22.2 2.7092 0.151936 0.0232478 0.948871
22.205 4.51059 0.114465 0.0238761 0.947599
22.21 4.51059 0.101224 0.0204204 0.94667
22.215 4.51059 0.0353666 0.0166504 0.956281
22.22 3.27682 -0.050014 0.0147655 0.950248
22.225 -0.494334 -0.140068 0.0122522 0.948602
22.23 -4.51059 -0.230343 0.00376991 0.947401
22.235 -4.51059 -0.176023 -0.000628319 0.946528
22.24 -4.51059 -0.167964 -0.00376991 0.945889
22.245 -4.51059 -0.171313 -0.00816814 0.945426
22.25 -4.51059 -0.0947587 -0.0144513 0.945087
22.255 -4.51059 -0.0140289 -0.0213628 0.944842
22.26 -4.51059 0.0768968 -0.0289027 0.944661
22.265 -0.778911 0.154731 -0.037385 0.944532
22.27 3.20458 0.179146 -0.041469 0.944435
22.275 4.51059 0.138266 -0.0417832 0.944368
22.28 4.51059 0.114425 -0.0471239 0.944316
22.285 4.51059 0.0627977 -0.0515221 0.94428
22.29 3.45419 -0.0292473 -0.0549779 0.944252
22.295 -0.502065 -0.122485 -0.0581195 0.944234
22.3 -4.51059 -0.184442 -0.0675442 0.944218
22.305 -4.51059 -0.136109 -0.0738274 0.944209
22.31 -4.51059 -0.106784 -0.0779115 0.9442
22.315 -4.51059 -0.13507 -0.0841947 0.944196
22.32 -4.51059 -0.0543079 -0.0914203 0.944191
22.325 -4.51059 0.0268893 -0.0999026 0.944189
22.33 -3.80791 0.119551 -0.109642 0.944186
22.335 0.842068 0.197711 -0.118752 0.944186
22.34 4.14071 0.194173 -0.119695 0.954469
22.345 4.51059 0.152121 -0.124721 0.948931
22.35 4.51059 0.157248 -0.131947 0.94764
22.355 4.51059 0.114422 -0.137288 0.946702
22.36 4.51059 0.00809874 -0.141058 0.946016
22.365 0.682825 -0.0795997 -0.142942 0.945519
22.37 -3.79281 -0.15006 -0.149226 0.945154
22.375 -4.51059 -0.113683 -0.160221 0.944891
22.38 -4.51059 -0.0589738 -0.163363 0.944697
22.385 -4.51059 -0.0997862 -0.169646 0.944558
22.39 -4.51059 -0.0323481 -0.176558 0.944455
22.395 -4.51059 0.0839129 -0.185354 0.944381
22.4 -2.72039 0.146856 -0.195093 0.944326
22.405 1.69217 0.227063 -0.203889 0.944288
22.41 4.14712 0.1946 -0.205774 0.944257
22.415 4.51059 0.181994 -0.211429 0.944238
22.42 4.51059 0.207743 -0.217712 0.944221
22.425 4.51059 0.147157 -0.223367 0.944211
22.43 4.51059 0.0404771 -0.227137 0.944202
22.435 1.42979 -0.0427987 -0.22965 0.933911
22.44 -2.89328 -0.107431 -0.234991 0.939445
22.445 -4.51059 -0.0543031 -0.245673 0.940732
22.45 -4.51059 -0.00628648 -0.251642 0.931381
22.455 -4.51059 -0.0518348 -0.257296 0.937604
22.46 -4.51059 0.0107543 -0.264522 0.939388
22.465 -4.51059 0.105636 -0.273004 0.940691
22.47 -1.23779 0.190418 -0.283057 0.941637
22.475 2.65485 0.24909 -0.289969 0.942329
22.48 4.51059 0.251698 -0.290911 0.932544
22.485 4.51059 0.215647 -0.297509 0.938451
22.49 4.51059 0.232301 -0.303792 0.940006
22.495 4.51059 0.209028 -0.308819 0.930854
22.5 4.51059 0.099305 -0.312274 0.926931
22.505 3.99337 0.0228039 -0.314473 0.934362
22.51 -0.314601 -0.0502296 -0.316044 0.937027
22.515 -2.54646 -0.0101212 -0.325783 0.93897
22.52 -3.08262 0.0396627 -0.331752 0.940387
22.525 -3.98891 0.0260565 -0.335208 0.931133
22.53 -3.91649 0.0550312 -0.340863 0.937424
22.535 -2.25771 0.130699 -0.34746 0.939261
22.54 1.00582 0.226392 -0.353743 0.930312
22.545 3.88626 0.243446 -0.352801 0.936826
22.55 4.51059 0.275733 -0.355628 0.938825
22.555 4.51059 0.268428 -0.361597 0.940281
22.56 4.51059 0.240719 -0.365996 0.941342
22.565 4.51059 0.233084 -0.368823 0.931828
22.57 4.51059 0.113836 -0.370708 0.927644
22.575 4.51059 0.0680724 -0.371336 0.934883
22.58 3.13032 0.0514609 -0.371022 0.937409
22.585 0.284571 0.0119095 -0.370394 0.93925
22.59 -0.642135 0.0620172 -0.376991 0.940591
22.595 -1.25499 0.0653485 -0.377934 0.941568
22.6 -1.32224 0.0829454 -0.378876 0.942279
22.605 0.0973338 0.147665 -0.379504 0.942797
22.61 2.53131 0.207864 -0.376991 0.943175
22.615 4.51059 0.215465 -0.372907 0.933161
22.62 4.51059 0.239866 -0.371965 0.9389
22.625 4.51059 0.230978 -0.371336 0.940333
22.63 4.51059 0.191984 -0.37008 0.941379
22.635 4.51059 0.17244 -0.367566 0.942138
22.64 4.51059 0.100714 -0.364425 0.942694
22.645 4.51059 0.0665739 -0.360969 0.943097
22.65 2.95281 0.0511152 -0.356257 0.943392
22.655 0.534279 0.00548943 -0.352801 0.943605
22.66 -0.0697099 0.0548521 -0.354686 0.954049
22.665 0.426984 0.0956538 -0.351544 0.948622
22.67 0.749794 0.0920118 -0.344947 0.947417
22.675 1.76148 0.124795 -0.342119 0.946537
22.68 3.76207 0.177544 -0.337721 0.945899
22.685 4.51059 0.191921 -0.331752 0.945431
22.69 4.51059 0.206034 -0.327354 0.945093
22.695 4.51059 0.180997 -0.322013 0.944844
22.7 4.51059 0.153474 -0.316673 0.944665
22.705 4.51059 0.104278 -0.310075 0.944532
22.71 4.51059 0.0453568 -0.303164 0.954724
22.715 4.51059 0.0513067 -0.29531 0.949114
22.72 2.96804 0.0207579 -0.286827 0.947776
22.725 1.08809 -0.0114787 -0.279288 0.946799
22.73 0.684417 0.0296367 -0.273319 0.956375
22.735 1.13095 0.0592963 -0.26515 0.960603
22.74 1.51709 0.0598894 -0.257611 0.963685
22.745 2.49775 0.0858398 -0.250071 0.955642
22.75 4.344 0.132296 -0.241903 0.952531
22.755 4.51059 0.137954 -0.232478 0.950263
22.76 4.51059 0.111064 -0.22431 0.958899
22.765 4.51059 0.109097 -0.216142 0.962441
22.77 4.51059 0.0839418 -0.207031 0.965025
22.775 4.51059 0.0349788 -0.197606 0.966904
22.78 4.51059 -0.0053664 -0.187239 0.968275
22.785 3.66898 0.00349896 -0.176558 0.969272
22.79 2.27589 -0.0319474 -0.165562 0.970001
22.795 0.959221 -0.0493742 -0.156137 0.970529
22.8 0.413562 -0.0339805 -0.146084 0.970916
22.805 0.685371 -0.00669674 -0.135403 0.971196
22.81 1.03253 -0.00256266 -0.125035 0.971402
22.815 1.82897 0.0189002 -0.114354 0.97155
22.82 3.33477 0.0569232 -0.103358 0.97166
22.825 3.64381 0.0168195 -0.090792 0.971738
22.83 4.00415 0.0182291 -0.0804248 0.971797
22.835 4.51059 0.0240031 -0.0688009 0.971837
22.84 4.28072 -0.00261829 -0.0565487 0.982156
22.845 3.47086 -0.0454217 -0.0442965 0.976637
22.85 2.34576 -0.0728155 -0.0320442 0.975366
22.855 1.45215 -0.0802347 -0.0207345 0.974438
22.86 0.438515 -0.100242 -0.0084823 0.973764
22.865 -0.68907 -0.120449 0.00282743 0.97327
22.87 -1.21271 -0.110679 0.00911062 0.962627
22.875 -1.14751 -0.0877755 0.019792 0.967904
22.88 -0.744051 -0.0737238 0.029531 0.969004
22.885 0.241799 -0.043968 0.0392699 0.969803
22.89 1.38806 -0.0263468 0.0483805 0.970387
22.895 1.90504 -0.0444624 0.0625177 0.97081
22.9 2.24093 -0.0491784 0.0716283 0.971121
22.905 2.817 -0.0320666 0.0810531 0.981632
22.91 3.02445 -0.0528149 0.0914203 0.976258
22.915 2.36174 -0.0919347 0.101788 0.975087
22.92 1.4762 -0.113833 0.112155 0.974237
22.925 0.16618 -0.146809 0.122208 0.973615
22.93 -0.652487 -0.146822 0.132261 0.962878
22.935 -1.55091 -0.158846 0.139173 0.957801
22.94 -2.16309 -0.154046 0.146398 0.96439
22.945 -2.18717 -0.136569 0.155509 0.966442
22.95 -2.3217 -0.141535 0.163363 0.967939
22.955 -1.97905 -0.121225 0.16996 0.969027
22.96 -1.22903 -0.098243 0.176243 0.969822
22.965 -0.405209 -0.0822953 0.181898 0.980685
22.97 0.538598 -0.0711415 0.187553 0.975568
22.975 0.955656 -0.0834065 0.193208 0.974585
22.98 0.954169 -0.0987205 0.199491 0.97387
22.985 0.509389 -0.120127 0.205146 0.973348
22.99 -0.127677 -0.135153 0.209858 0.97297
22.995 -0.71111 -0.144028 0.214571 0.962406
23 -1.471 -0.157349 0.218969 0.957459
23.005 -2.46613 -0.173625 0.221168 0.964139
23.01 -3.08769 -0.168684 0.224938 0.966261
23.015 -3.31795 -0.156831 0.227765 0.967805
23.02 -3.41628 -0.151335 0.229965 0.968932
23.025 -3.26239 -0.13804 0.231535 0.980036
23.03 -2.49525 -0.106499 0.232478 0.975096
23.035 -1.64337 -0.0910233 0.233734 0.974241
23.04 -1.10123 -0.0928833 0.234677 0.97362
23.045 -0.907054 -0.100508 0.234991 0.973166
23.05 -0.795891 -0.100717 0.235305 0.972837
23.055 -0.811711 -0.103933 0.235305 0.972595
23.06 -1.2437 -0.12268 0.235305 0.962135
23.065 -1.79476 -0.130499 0.234991 0.967545
23.07 -2.44074 -0.139891 0.234363 0.968743
23.075 -3.05508 -0.14386 0.232792 0.969614
23.08 -3.38292 -0.135522 0.230907 0.970249
23.085 -3.85923 -0.142667 0.228394 0.97071
23.09 -3.89924 -0.126338 0.224938 0.981334
23.095 -3.63743 -0.108441 0.22054 0.986325
23.1 -2.76954 -0.0719438 0.216142 0.979677
23.105 -1.76654 -0.0519362 0.211115 0.977578
23.11 -1.3468 -0.0629725 0.206403 0.976052
23.115 -1.07444 -0.0617753 0.201376 0.974937
23.12 -0.758167 -0.0541096 0.196664 0.974127
23.125 -0.77135 -0.0629063 0.191951 0.973535
23.13 -1.26668 -0.0827284 0.187553 0.973106
23.135 -1.7127 -0.0843425 0.183155 0.972791
23.14 -2.20754 -0.0894462 0.178757 0.972564
23.145 -2.83387 -0.09843 0.174044 0.972397
23.15 -3.41097 -0.100326 0.168704 0.972277
23.155 -3.65952 -0.0914502 0.163049 0.982473
23.16 -3.5782 -0.0745236 0.156765 0.987157
23.165 -3.20512 -0.052663 0.150168 0.980281
23.17 -2.48531 -0.0290923 0.143257 0.978021
23.175 -1.80811 -0.0183503 0.136031 0.976371
23.18 -1.20572 -0.00997372 0.128491 0.975172
23.185 -0.658997 -0.00209517 0.120951 0.974297
23.19 -0.328561 -0.00106011 0.11404 0.963375
23.195 -0.216711 -0.00692241 0.107128 0.968448
23.2 -0.411508 -0.0167286 0.100217 0.969401
23.205 -0.611341 -0.0172393 0.0933053 0.970092
23.21 -1.25396 -0.0373484 0.086708 0.970598
23.215 -2.09937 -0.05168 0.0797965 0.970964
23.22 -2.67699 -0.0500343 0.0725708 0.981519
23.225 -2.87315 -0.0319379 0.065031 0.976174
23.23 -2.87466 -0.0224561 0.057177 0.975028
23.235 -2.72646 -0.0115511 0.0490088 0.974192
23.24 -2.35209 0.00460005 0.0405265 0.973584
23.245 -1.51719 0.0337728 0.0320442 0.97314
23.25 -0.57558 0.0521552 0.0235619 0.972818
23.255 0.155755 0.0591819 0.0153938 0.962295
23.26 0.705067 0.0586029 0.00785398 0.967664
23.265 0.950415 0.0531263 0.00282743 0.968827
23.27 0.838224 0.0405136 -0.00188496 0.969676
23.275 0.433309 0.0271014 -0.00879646 0.970293
23.28 -0.200499 0.0130015 -0.0150796 0.970744
23.285 -0.766952 0.00713845 -0.0213628 0.981357
23.29 -1.34107 0.00642508 -0.0317301 0.976058
23.295 -1.72028 0.00958525 -0.037385 0.974941
23.3 -2.00421 0.0119896 -0.0439823 0.974131
23.305 -1.96841 0.0259369 -0.0508938 0.973538
23.31 -1.55589 0.0464493 -0.0581195 0.973108
23.315 -0.91336 0.0679036 -0.0653451 0.962506
23.32 -0.0475965 0.0838514 -0.0725708 0.967818
23.325 0.777125 0.0955051 -0.0797965 0.968939
23.33 1.56163 0.103413 -0.0813672 0.969758
23.335 2.01396 0.0988506 -0.0882788 0.970352
23.34 2.25852 0.0950035 -0.0939336 0.970788
23.345 2.17582 0.0828693 -0.0989602 0.971102
23.35 1.77655 0.0670294 -0.103358 0.971334
23.355 0.944 0.0421478 -0.107128 0.9715
23.36 0.204784 0.0361839 -0.111212 0.971624
23.365 -0.529415 0.027782 -0.114668 0.971711
23.37 -1.11656 0.0273188 -0.121265 0.971778
23.375 -1.42422 0.03739 -0.126292 0.961537
23.38 -1.35313 0.0515315 -0.130376 0.956826
23.385 -0.714071 0.0765699 -0.13446 0.963678
23.39 -0.0173567 0.0894142 -0.138544 0.965925
23.395 1.10563 0.117942 -0.142314 0.96756
23.4 2.09096 0.124371 -0.141372 0.968753
23.405 2.71501 0.119342 -0.143571 0.96962
23.41 3.02738 0.111768 -0.146398 0.970254
23.415 3.11671 0.103776 -0.148283 0.970714
23.42 2.86414 0.0874578 -0.14954 0.971051
23.425 2.14836 0.0615731 -0.150482 0.971294
23.43 1.30572 0.0458847 -0.151425 0.961187
23.435 0.370559 0.0310377 -0.152367 0.956569
23.44 -0.407236 0.0266311 -0.152996 0.953206
23.445 -0.727064 0.0366466 -0.154881 0.961041
23.45 -0.835289 0.0441117 -0.159279 0.964004
23.455 -0.443161 0.0659672 -0.16085 0.96616
23.46 0.182503 0.0818416 -0.162106 0.967734
23.465 1.13607 0.104849 -0.163049 0.958591
23.47 2.29996 0.123119 -0.159593 0.964966
23.475 3.08765 0.119114 -0.158965 0.966861
23.48 3.71739 0.119364 -0.158336 0.968244
23.485 3.9671 0.107113 -0.15708 0.96925
23.49 4.02613 0.0961099 -0.154881 0.959698
23.495 3.35846 0.0616469 -0.152367 0.955484
23.5 2.41137 0.0380192 -0.148911 0.952416
23.505 1.25596 0.0160148 -0.146084 0.960465
23.51 0.0566145 -0.00254626 -0.143571 0.963585
23.515 -0.68819 0.00189113 -0.141058 0.965855
23.52 -1.06732 0.0101544 -0.143257 0.967511
23.525 -1.00218 0.025466 -0.141058 0.968716
23.53 -0.855569 0.0303881 -0.139801 0.969595
23.535 0.272463 0.0764437 -0.138544 0.970235
23.54 1.67498 0.102101 -0.136659 0.970702
23.545 2.84738 0.106406 -0.131004 0.97104
23.55 4.02507 0.115873 -0.127863 0.961002
23.555 4.51059 0.112201 -0.124721 0.956434
23.56 4.51059 0.100138 -0.12158 0.963394
23.565 4.51059 0.0571008 -0.117496 0.965716
23.57 4.03473 0.040773 -0.112155 0.96741
23.575 2.3989 -0.0132842 -0.106186 0.968642
23.58 0.997043 -0.026175 -0.101159 0.969541
23.585 -0.234259 -0.0381066 -0.0955044 0.970194
23.59 -1.07398 -0.0363257 -0.0923628 0.970673
23.595 -1.68013 -0.0359241 -0.0898495 0.971018
23.6 -1.99228 -0.0298651 -0.0860796 0.971273
23.605 -1.34876 0.0097859 -0.0826239 0.971456
23.61 0.309495 0.0635763 -0.0794823 0.971591
23.615 1.47069 0.0590193 -0.0750841 0.961402
23.62 2.89182 0.0840482 -0.0681726 0.967013
23.625 4.13875 0.0903031 -0.0634602 0.968353
23.63 4.51059 0.0818254 -0.0584336 0.969331
23.635 4.51059 0.0628682 -0.0537212 0.970041
23.64 4.51059 0.0252113 -0.0477522 0.970561
23.645 3.71727 -0.00177815 -0.0408407 0.981223
23.65 2.15847 -0.0487356 -0.0333009 0.975961
23.655 0.400654 -0.0786292 -0.0270177 0.974871
23.66 -0.994384 -0.0858233 -0.0204204 0.974079
23.665 -1.92036 -0.0812259 -0.0188496 0.9735
23.67 -2.49802 -0.07687 -0.0131947 0.973081
23.675 -2.68959 -0.0657296 -0.00879646 0.972773
23.68 -1.40984 -0.000848708 -0.00502655 0.972551
23.685 0.108378 0.0260552 -0.00125664 0.972387
23.69 1.4212 0.034619 0.00345575 0.97227
23.695 3.23824 0.0704086 0.0116239 0.972182
23.7 4.30092 0.0555354 0.0172788 0.97212
23.705 4.51059 0.0437605 0.0226195 0.972073
23.71 4.51059 0.0238484 0.0279602 0.982327
23.715 4.13084 -0.0228849 0.0348717 0.976762
23.72 2.78364 -0.059679 0.0424115 0.975457
23.725 0.625456 -0.11638 0.0496372 0.974504
23.73 -1.16648 -0.128375 0.0559203 0.973812
23.735 -2.8617 -0.14612 0.057177 0.963019
23.74 -3.97996 -0.138605 0.0625177 0.957906
23.745 -4.34004 -0.116623 0.0666018 0.964464
23.75 -3.76513 -0.0766713 0.0694292 0.966498
23.755 -2.36301 -0.0301235 0.0719425 0.967977
23.76 -0.615112 0.00440567 0.0738274 0.969057
23.765 1.41857 0.0389678 0.0766549 0.969842
23.77 3.31233 0.0514086 0.0845088 0.960129
23.775 4.38664 0.0395428 0.0885929 0.966084
23.78 4.51059 0.0225946 0.092677 0.967678
23.785 4.51059 -0.00800353 0.0973894 0.968837
23.79 3.27756 -0.0690985 0.103358 0.969684
23.795 1.3568 -0.115517 0.109327 0.960012
23.8 -0.894067 -0.153336 0.115296 0.955715
23.805 -3.08958 -0.176122 0.115296 0.952582
23.81 -4.51059 -0.201333 0.119381 0.960588
23.815 -4.51059 -0.164699 0.122836 0.963672
23.82 -4.51059 -0.129864 0.125035 0.965921
23.825 -4.51059 -0.0768586 0.125978 0.957271
23.83 -3.18362 -0.0340963 0.125978 0.964004
23.835 -0.903077 0.00991125 0.12535 0.966161
23.84 1.44224 0.04215 0.125978 0.967734
23.845 3.1272 0.0395701 0.131319 0.968878
23.85 4.24499 0.0287306 0.133204 0.959427
23.855 4.51059 0.0282049 0.135403 0.955286
23.86 4.19056 -0.0456424 0.13823 0.952272
23.865 2.05389 -0.107666 0.142 0.96036
23.87 -0.331717 -0.14895 0.144827 0.963508
23.875 -2.90148 -0.187164 0.147027 0.965799
23.88 -4.51059 -0.198815 0.144199 0.967471
23.885 -4.51059 -0.177276 0.146712 0.9584
23.89 -4.51059 -0.17035 0.147969 0.964827
23.895 -4.51059 -0.131885 0.147655 0.96676
23.9 -4.51059 -0.0605192 0.146398 0.96817
23.905 -3.19339 -0.011295 0.144199 0.969195
23.91 -0.475942 0.0344593 0.141686 0.959659
23.915 2.12171 0.0611992 0.141686 0.955456
23.92 3.49657 0.0384333 0.14577 0.962682
23.925 4.12988 0.0199042 0.14577 0.965198
23.93 4.43302 0.010128 0.146398 0.967033
23.935 2.59544 -0.0849553 0.147655 0.968368
23.94 0.434562 -0.124054 0.147969 0.969342
23.945 -2.19118 -0.1721 0.148911 0.97005
23.95 -4.51059 -0.213448 0.143571 0.970567
23.955 -4.51059 -0.16902 0.143885 0.970942
23.96 -4.51059 -0.165611 0.142942 0.971217
23.965 -4.51059 -0.162346 0.141372 0.96113
23.97 -4.51059 -0.0953625 0.138544 0.956529
23.975 -4.51059 -0.0254611 0.13446 0.953176
23.98 -2.45818 0.0275279 0.129748 0.961021
23.985 0.909492 0.08549 0.126292 0.963988
23.99 2.69647 0.0558924 0.129434 0.966151
23.995 3.54084 0.0349008 0.127549 0.967726
24 4.25761 0.0350263 0.125664 0.958588
24.005 3.21102 -0.0337238 0.125035 0.964962
24.01 1.04537 -0.0995692 0.124407 0.96686
24.015 -1.54973 -0.146161 0.123465 0.968242
24.02 -4.51059 -0.217778 0.116867 0.958963
24.025 -4.51059 -0.169919 0.114982 0.954949
24.03 -4.51059 -0.150542 0.113097 0.952026
24.035 -4.51059 -0.160148 0.109956 0.949896
24.04 -4.51059 -0.109566 0.105872 0.95863
24.045 -4.51059 -0.0295792 0.100845 0.962247
24.05 -3.97129 0.0303117 0.0948761 0.964882
24.055 -0.344862 0.0987989 0.0885929 0.956515
24.06 1.99018 0.0851379 0.0854513 0.963452
24.065 2.81727 0.0463141 0.0854513 0.96576
24.07 3.59093 0.0533123 0.0816814 0.967441
24.075 3.62974 0.0268159 0.0785398 0.958379
24.08 1.93128 -0.0503163 0.0757124 0.954524
24.085 -0.568578 -0.105801 0.0722566 0.951716
24.09 -3.90124 -0.169085 0.065031 0.94967
24.095 -4.51059 -0.176315 0.0596903 0.958466
24.1 -4.51059 -0.123685 0.0559203 0.962127
24.105 -4.51059 -0.127199 0.0515221 0.954508
24.11 -4.51059 -0.0953009 0.0458673 0.951704
24.115 -4.51059 -0.019534 0.0395841 0.959948
24.12 -4.51059 0.0337276 0.0320442 0.963207
24.125 -1.18821 0.109207 0.0241903 0.965581
24.13 1.65114 0.126435 0.0191637 0.957024
24.135 2.89381 0.0879361 0.0182212 0.953537
24.14 3.73948 0.0844934 0.0128805 0.950997
24.145 3.88435 0.0622281 0.00879646 0.949146
24.15 2.13232 -0.0202114 0.00471239 0.958084
24.155 -0.286336 -0.0722967 -0.000314159 0.961849
24.16 -3.12008 -0.116182 -0.00628319 0.954306
24.165 -4.51059 -0.134738 -0.0160221 0.951557
24.17 -4.51059 -0.0901315 -0.0201062 0.95984
24.175 -4.51059 -0.0866085 -0.0263894 0.963129
24.18 -4.51059 -0.0509041 -0.033615 0.965524
24.185 -4.51059 0.00403509 -0.0417832 0.956983
24.19 -4.46736 0.0550403 -0.0508938 0.953507
24.195 -0.710419 0.155585 -0.0609469 0.950975
24.2 2.42573 0.173913 -0.0672301 0.959416
24.205 3.88136 0.138731 -0.0694292 0.96282
24.21 4.51059 0.142792 -0.0763407 0.965299
24.215 4.51059 0.0935211 -0.0819956 0.956819
24.22 3.53364 0.0394994 -0.0863938 0.953388
24.225 1.23625 -0.0196184 -0.0901637 0.961174
24.23 -1.53803 -0.0693394 -0.0951903 0.9641
24.235 -4.14141 -0.0883327 -0.104615 0.955946
24.24 -4.51059 -0.0877773 -0.109956 0.952751
24.245 -4.51059 -0.0539014 -0.115296 0.950424
24.25 -4.51059 -0.0224 -0.122208 0.948729
24.255 -4.51059 0.0198834 -0.130376 0.957781
24.26 -4.31012 0.0793595 -0.140115 0.961628
24.265 -0.781598 0.178061 -0.150482 0.954145
24.27 2.39092 0.204933 -0.157708 0.951439
24.275 4.36583 0.189339 -0.161164 0.949469
24.28 4.51059 0.193366 -0.167761 0.958319
24.285 4.51059 0.173679 -0.174358 0.951734
24.29 4.51059 0.112264 -0.179699 0.949683
24.295 3.79041 0.0360762 -0.183155 0.948189
24.3 0.6689 -0.0236864 -0.185982 0.947101
24.305 -2.12107 -0.0452941 -0.19258 0.946308
24.31 -4.08867 -0.0435967 -0.201062 0.956017
24.315 -4.51059 -0.0104712 -0.206717 0.960343
24.32 -4.51059 0.00310864 -0.212686 0.953209
24.325 -4.51059 0.0315483 -0.219597 0.950758
24.33 -3.51124 0.102451 -0.228394 0.959258
24.335 -0.213519 0.197082 -0.236876 0.962704
24.34 3.24291 0.247477 -0.238133 0.954929
24.345 4.51059 0.209288 -0.244102 0.952011
24.35 4.51059 0.231953 -0.250071 0.949885
24.355 4.51059 0.21801 -0.255726 0.948336
24.36 4.51059 0.167666 -0.259496 0.957494
24.365 4.51059 0.106495 -0.262323 0.95113
24.37 3.86482 0.0491296 -0.26358 0.949241
24.375 0.626334 -0.00915631 -0.264208 0.947865
24.38 -1.84653 -0.015559 -0.27269 0.957148
24.385 -2.61778 0.0347449 -0.276146 0.950879
24.39 -2.65522 0.0598364 -0.280544 0.949058
24.395 -2.91052 0.0528283 -0.283686 0.947732
24.4 -2.25373 0.0927704 -0.288084 0.946765
24.405 0.58594 0.198183 -0.292796 0.946061
24.41 3.40326 0.230041 -0.290911 0.945548
24.415 4.51059 0.235353 -0.292168 0.955461
24.42 4.51059 0.229927 -0.295624 0.949649
24.425 4.51059 0.214548 -0.298137 0.948163
24.43 4.51059 0.195565 -0.29908 0.947079
24.435 4.51059 0.129408 -0.298765 0.956576
24.44 4.51059 0.0764958 -0.297509 0.950462
24.445 2.85301 0.0328056 -0.295624 0.948754
24.45 0.0159885 -0.00692217 -0.294367 0.94751
24.455 -0.857521 0.0457459 -0.298765 0.946604
24.46 -0.644761 0.0817547 -0.299394 0.956232
24.465 -1.08059 0.0566591 -0.298451 0.9605
24.47 -0.590073 0.0948239 -0.298137 0.953322
24.475 1.54928 0.172282 -0.297509 0.950841
24.48 3.72548 0.197313 -0.29154 0.959318
24.485 4.51059 0.210281 -0.288712 0.962749
24.49 4.51059 0.201803 -0.286827 0.95496
24.495 4.51059 0.171769 -0.284628 0.952035
24.5 4.51059 0.135425 -0.281173 0.949901
24.505 4.51059 0.0994656 -0.277088 0.948349
24.51 4.51059 0.0641441 -0.272062 0.947216
24.515 2.81027 0.0305774 -0.266093 0.956679
24.52 0.498034 -0.0121932 -0.262009 0.960825
24.525 -0.60714 0.0125857 -0.262951 0.95356
24.53 -0.191886 0.066094 -0.260438 0.951013
24.535 -0.0159994 0.0600803 -0.256354 0.959445
24.54 0.584918 0.0804964 -0.252898 0.962839
24.545 2.48017 0.143041 -0.24473 0.965314
24.55 4.31855 0.158424 -0.239389 0.956829
24.555 4.51059 0.161394 -0.234363 0.953396
24.56 4.51059 0.157 -0.229336 0.950893
24.565 4.51059 0.128958 -0.223681 0.959358
24.57 4.51059 0.0954573 -0.21677 0.962776
24.575 4.51059 0.0402972 -0.20923 0.965268
24.58 4.085 0.021726 -0.200748 0.956795
24.585 2.45811 -0.00126172 -0.191951 0.963658
24.59 0.488416 -0.0415797 -0.184411 0.965908
24.595 -0.758116 -0.0357664 -0.177814 0.96755
24.6 -0.507158 0.015855 -0.174987 0.968744
24.605 -0.1404 0.0216361 -0.167761 0.95933
24.61 0.696552 0.0456262 -0.16085 0.955215
24.615 2.35913 0.0887926 -0.151111 0.952221
24.62 4.05654 0.110488 -0.142942 0.960323
24.625 4.51059 0.0893098 -0.134774 0.963481
24.63 4.51059 0.0841346 -0.127863 0.965779
24.635 4.51059 0.0908338 -0.120009 0.95717
24.64 4.51059 0.0413282 -0.111212 0.953642
24.645 4.51059 -0.010557 -0.101473 0.961361
24.65 2.96755 -0.0425537 -0.0914203 0.964235
24.655 1.28399 -0.0654084 -0.0819956 0.966331
24.66 0.0381923 -0.0728469 -0.0728849 0.957569
24.665 -0.922721 -0.0757159 -0.0637743 0.953936
24.67 -1.12325 -0.0536509 -0.0590619 0.951286
24.675 -0.922249 -0.0372484 -0.0505796 0.959644
24.68 -0.180218 -0.0124177 -0.0420973 0.962984
24.685 1.53988 0.0353573 -0.0339292 0.955134
24.69 2.79006 0.0314959 -0.0204204 0.952159
24.695 3.25562 0.00830033 -0.0116239 0.949994
24.7 4.04219 0.0290449 -0.00345575 0.958701
24.705 4.51059 0.0249098 0.00596903 0.962299
24.71 4.43706 -0.0163013 0.0160221 0.954632
24.715 3.13933 -0.0692322 0.0267035 0.951796
24.72 1.7366 -0.0936805 0.0370708 0.949727
24.725 0.376543 -0.111835 0.0471239 0.948222
24.73 -1.0808 -0.131569 0.057177 0.95741
24.735 -1.92227 -0.123651 0.0618894 0.961359
24.74 -1.99349 -0.100568 0.071 0.964234
24.745 -1.67724 -0.0867299 0.0794823 0.956044
24.75 -1.11954 -0.0720192 0.0876504 0.952822
24.755 -0.016873 -0.0390022 0.0948761 0.960763
24.76 1.26345 -0.0192694 0.102102 0.9638
24.765 2.40035 -0.0181253 0.114668 0.955728
24.77 3.03678 -0.0286985 0.122522 0.952591
24.775 3.23149 -0.0441296 0.130376 0.950309
24.78 2.81792 -0.0669766 0.138544 0.95893
24.785 1.5552 -0.115252 0.147341 0.962467
24.79 0.412944 -0.128579 0.155509 0.96504
24.795 -0.604348 -0.142706 0.163677 0.956632
24.8 -1.83668 -0.16391 0.171845 0.95325
24.805 -2.90012 -0.16752 0.17373 0.961075
24.81 -3.10097 -0.142586 0.180642 0.964027
24.815 -2.81393 -0.123641 0.186611 0.955893
24.82 -2.32815 -0.109788 0.191951 0.952712
24.825 -1.39467 -0.0834628 0.196978 0.950397
24.83 -0.270103 -0.063744 0.202004 0.948708
24.835 0.59031 -0.0624695 0.207345 0.947481
24.84 0.754171 -0.0804359 0.212372 0.956874
24.845 0.867312 -0.0862866 0.217398 0.950683
24.85 0.662544 -0.0994931 0.223053 0.94892
24.855 -0.0446692 -0.12497 0.227765 0.947635
24.86 -1.16283 -0.149693 0.232164 0.956986
24.865 -2.26832 -0.162968 0.233106 0.961051
24.87 -3.32888 -0.174281 0.236248 0.953726
24.875 -4.02275 -0.167857 0.238133 0.951137
24.88 -4.08573 -0.145389 0.239389 0.94925
24.885 -3.57563 -0.117992 0.240646 0.947876
24.89 -2.75408 -0.0952024 0.24096 0.957161
24.895 -1.84578 -0.0783706 0.240646 0.961179
24.9 -0.829333 -0.0614534 0.240646 0.953819
24.905 -0.046636 -0.0585804 0.24096 0.951204
24.91 0.548977 -0.0553917 0.241588 0.959586
24.915 0.680955 -0.069218 0.242531 0.962945
24.92 0.243969 -0.0951147 0.243473 0.955106
24.925 -0.683699 -0.12115 0.244102 0.952142
24.93 -1.85324 -0.141841 0.244102 0.949981
24.935 -2.90859 -0.148994 0.243788 0.948405
24.94 -3.97853 -0.160438 0.242531 0.957545
24.945 -4.51059 -0.156946 0.240332 0.961455
24.95 -4.51059 -0.138858 0.238133 0.964306
24.955 -4.51059 -0.10332 0.234991 0.956095
24.96 -3.8689 -0.0850043 0.230907 0.952861
24.965 -2.62368 -0.0500974 0.226509 0.960789
24.97 -1.19526 -0.0223104 0.221796 0.963821
24.975 -0.323523 -0.0270287 0.217712 0.966027
24.98 0.242203 -0.0285155 0.213628 0.95735
24.985 0.450374 -0.0367597 0.210173 0.953774
24.99 0.244725 -0.0518095 0.207031 0.95117
24.995 -0.567872 -0.0802397 0.204204 0.959558
25 -1.73287 -0.104911 0.201062 0.962924
25.005 -3.01021 -0.122239 0.197292 0.965373
25.01 -4.26689 -0.131163 0.192894 0.956874
25.015 -4.51059 -0.120084 0.187867 0.963713
25.02 -4.51059 -0.0979412 0.182841 0.965951
25.025 -4.51059 -0.0785664 0.177186 0.967579
25.03 -4.11619 -0.0468015 0.170588 0.968767
25.035 -2.75404 -0.00456711 0.163363 0.959344
25.04 -1.15288 0.0247239 0.156137 0.955228
25.045 0.00547541 0.0266487 0.149854 0.952228
25.05 0.769996 0.023804 0.143885 0.96033
25.055 1.25989 0.0218741 0.140115 0.963484
25.06 0.960511 -0.00719013 0.136345 0.965784
25.065 0.0635285 -0.0368908 0.13069 0.967457
25.07 -1.27142 -0.0646698 0.12535 0.958392
25.075 -2.36447 -0.0685979 0.114354 0.964819
25.08 -3.30024 -0.0716158 0.108385 0.966756
25.085 -4.34664 -0.0841983 0.101788 0.968165
25.09 -4.51059 -0.0703964 0.0945619 0.958908
25.095 -4.51059 -0.0355236 0.0870221 0.954908
25.1 -3.98935 -0.000175542 0.0785398 0.951997
25.105 -2.43343 0.0412024 0.0697434 0.96016
25.11 -0.775319 0.0705227 0.0612611 0.963362
25.115 0.643073 0.0829365 0.0540354 0.965693
25.12 1.70416 0.085186 0.049323 0.967393
25.125 2.25078 0.0759388 0.0442965 0.958343
25.13 2.21358 0.0554615 0.0380133 0.964785
25.135 1.56499 0.0276351 0.0320442 0.96673
25.14 0.356032 -0.0054904 0.0267035 0.968149
25.145 -0.945298 -0.0216297 0.0213628 0.958894
25.15 -2.32047 -0.0372418 0.0109956 0.9549
25.155 -3.68994 -0.0502233 0.00502655 0.951988
25.16 -4.22111 -0.0256539 -0.00188496 0.94987
25.165 -3.99853 0.000877785 -0.00879646 0.95861
25.17 -3.1757 0.0362604 -0.0163363 0.962234
25.175 -1.9845 0.0672204 -0.0245044 0.964871
25.18 -0.372157 0.107154 -0.0326726 0.956508
25.185 1.28738 0.127098 -0.0402124 0.963446
25.19 2.86877 0.144415 -0.0424115 0.965756
25.195 3.54705 0.123021 -0.0480664 0.967437
25.2 3.66399 0.104967 -0.0540354 0.958378
25.205 3.24627 0.0811309 -0.0593761 0.954522
25.21 2.12068 0.0435054 -0.0634602 0.951715
25.215 0.690198 0.0160672 -0.0678584 0.949668
25.22 -0.921172 -0.0107173 -0.0716283 0.958466
25.225 -2.38456 -0.0213169 -0.0804248 0.962126
25.23 -3.16728 -0.00688376 -0.084823 0.964795
25.235 -3.2522 0.0214762 -0.0892212 0.95645
25.24 -2.71019 0.0464882 -0.0942478 0.963406
25.245 -1.50255 0.0870706 -0.0992743 0.965725
25.25 0.17982 0.125573 -0.104615 0.967417
25.255 1.80444 0.144618 -0.108699 0.968647
25.26 3.48044 0.16534 -0.108699 0.969545
25.265 4.19164 0.140144 -0.110898 0.959911
25.27 4.51059 0.128756 -0.113726 0.955641
25.275 4.13338 0.0994791 -0.115925 0.962815
25.28 2.90303 0.0537413 -0.117181 0.965296
25.285 1.54415 0.0305244 -0.118438 0.967102
25.29 -0.0976177 6.88653e-05 -0.120323 0.96842
25.295 -1.72329 -0.021515 -0.121894 0.979662
25.3 -2.98186 -0.0198773 -0.128491 0.974824
25.305 -2.95189 0.0242541 -0.130376 0.974043
25.31 -2.2121 0.0590947 -0.132889 0.973476
25.315 -0.843363 0.0986307 -0.135717 0.973061
25.32 0.805649 0.130341 -0.137916 0.962474
25.325 2.43062 0.146057 -0.135403 0.957506
25.33 4.30452 0.175427 -0.136345 0.964176
25.335 4.51059 0.158736 -0.136345 0.966285
25.34 4.51059 0.132785 -0.136659 0.967825
25.345 4.51059 0.101975 -0.135403 0.968944
25.35 4.09128 0.0562303 -0.133518 0.969762
25.355 1.96161 -0.00117887 -0.130376 0.960069
25.36 0.231749 -0.00949454 -0.130062 0.966042
25.365 -1.45281 -0.0304007 -0.127863 0.967645
25.37 -2.84615 -0.0363686 -0.131319 0.968816
25.375 -2.91211 0.00965215 -0.131004 0.959379
25.38 -2.18278 0.0449607 -0.130062 0.955254
25.385 -0.784686 0.0844135 -0.130376 0.952246
25.39 1.09582 0.122377 -0.130062 0.950059
25.395 2.64942 0.129027 -0.125035 0.958747
25.4 4.43806 0.156673 -0.123779 0.962334
25.405 4.51059 0.158162 -0.121894 0.964943
25.41 4.51059 0.135111 -0.120637 0.956561
25.415 4.51059 0.0997165 -0.11781 0.963485
25.42 4.51059 0.0495705 -0.11404 0.965785
25.425 2.86135 -0.0173042 -0.109642 0.967458
25.43 0.859191 -0.0309929 -0.105558 0.968679
25.435 -1.00452 -0.0513895 -0.10273 0.95928
25.44 -2.28938 -0.0462369 -0.103673 0.955181
25.445 -2.32816 -0.00585359 -0.101159 0.952193
25.45 -2.01015 0.00950773 -0.0983318 0.960305
25.455 -1.01613 0.0446385 -0.0961327 0.963466
25.46 0.754855 0.091834 -0.0939336 0.965771
25.465 2.85032 0.125675 -0.0863938 0.967448
25.47 4.42169 0.125332 -0.0826239 0.968672
25.475 4.51059 0.136879 -0.0791681 0.969561
25.48 4.51059 0.108507 -0.0750841 0.970211
25.485 4.51059 0.0803864 -0.0703717 0.970682
25.49 4.51059 0.0297193 -0.0647168 0.971028
25.495 3.32347 -0.0374706 -0.0581195 0.960991
25.5 1.42975 -0.0492498 -0.0521504 0.956428
25.505 -0.586466 -0.0776225 -0.0471239 0.963388
25.51 -1.88918 -0.0715828 -0.0461814 0.965714
25.515 -2.63979 -0.0630723 -0.041469 0.967406
25.52 -2.58817 -0.0356873 -0.037385 0.968641
25.525 -2.236 -0.020511 -0.0339292 0.969539
25.53 -0.209206 0.0597579 -0.0311018 0.970195
25.535 1.98942 0.0918174 -0.0270177 0.97067
25.54 3.22624 0.0723162 -0.0185354 0.971019
25.545 4.47808 0.0850363 -0.0144513 0.971271
25.55 4.51059 0.0865326 -0.00973894 0.961171
25.555 4.51059 0.0644194 -0.00502655 0.956556
25.56 4.51059 0.00470106 0.00125664 0.953198
25.565 3.69662 -0.0345066 0.0084823 0.961034
25.57 1.44155 -0.0871585 0.0163363 0.964
25.575 -0.649976 -0.110778 0.0226195 0.966157
25.58 -2.42443 -0.123388 0.0241903 0.957445
25.585 -3.29846 -0.103788 0.0304734 0.953843
25.59 -3.34871 -0.0768557 0.0358142 0.961507
25.595 -2.94969 -0.0560175 0.0398982 0.964341
25.6 -1.52081 -0.00384847 0.0436681 0.966408
25.605 0.54525 0.0409347 0.0471239 0.957626
25.61 2.23672 0.0472737 0.0527788 0.953977
25.615 4.12137 0.0720717 0.0603186 0.951316
25.62 4.51059 0.0642547 0.065031 0.94938
25.625 4.51059 0.0290934 0.0703717 0.958253
25.63 4.51059 -0.00624672 0.0763407 0.961973
25.635 3.57143 -0.0588257 0.0832522 0.964681
25.64 1.7009 -0.100338 0.0904779 0.95637
25.645 -0.498775 -0.135286 0.0967611 0.963345
25.65 -2.57503 -0.158919 0.100531 0.965683
25.655 -4.11371 -0.159502 0.103358 0.967384
25.66 -4.29236 -0.115851 0.108071 0.958339
25.665 -4.44481 -0.114084 0.111527 0.954494
25.67 -3.7009 -0.0737205 0.11404 0.951695
25.675 -1.43427 0.00472492 0.115925 0.95994
25.68 0.669562 0.0268663 0.118438 0.963202
25.685 2.42284 0.035981 0.123465 0.965576
25.69 4.39692 0.0643556 0.129748 0.967308
25.695 4.51059 0.0289345 0.133518 0.958281
25.7 4.51059 -0.000638284 0.138544 0.96474
25.705 4.34117 -0.0420592 0.144199 0.966697
25.71 1.93476 -0.12461 0.151111 0.968125
25.715 -0.22187 -0.146236 0.156765 0.969162
25.72 -2.58851 -0.184891 0.162106 0.959634
25.725 -4.51059 -0.210123 0.162106 0.955437
25.73 -4.51059 -0.162854 0.166504 0.952382
25.735 -4.51059 -0.154545 0.16996 0.96044
25.74 -4.51059 -0.13422 0.171531 0.963567
25.745 -4.48055 -0.0585596 0.171845 0.965842
25.75 -1.45243 0.0201001 0.171217 0.967502
25.755 0.5441 0.012872 0.172159 0.968709
25.76 2.63582 0.0415108 0.173102 0.96959
25.765 4.26325 0.0433202 0.178757 0.97023
25.77 4.51059 0.0118735 0.180327 0.970698
25.775 4.19336 -0.0384818 0.183155 0.971037
25.78 2.99385 -0.0791337 0.186925 0.961
25.785 0.632123 -0.145811 0.190695 0.956432
25.79 -2.51369 -0.20796 0.193522 0.963393
25.795 -4.51059 -0.21519 0.190695 0.965716
25.8 -4.51059 -0.191176 0.193522 0.96741
25.805 -4.51059 -0.182725 0.195093 0.968641
25.81 -4.51059 -0.186889 0.195721 0.969541
25.815 -4.51059 -0.105552 0.195093 0.970194
25.82 -4.51059 -0.0431332 0.193522 0.970672
25.825 -1.96369 0.0183556 0.190695 0.971018
25.83 0.519362 0.0309075 0.189752 0.971273
25.835 2.55559 0.0409452 0.191323 0.971456
25.84 3.9164 0.0333173 0.19415 0.971591
25.845 4.01694 -0.012481 0.193522 0.961402
25.85 3.57954 -0.033575 0.194779 0.967013
25.855 1.87539 -0.0995989 0.19635 0.968353
25.86 -1.50674 -0.1973 0.197292 0.969331
25.865 -4.46247 -0.217391 0.191637 0.970041
25.87 -4.51059 -0.203639 0.191637 0.970561
25.875 -4.51059 -0.179445 0.191009 0.981223
25.88 -4.51059 -0.197083 0.189124 0.975961
25.885 -4.51059 -0.13524 0.186296 0.974871
25.89 -4.51059 -0.0713409 0.182212 0.974079
25.895 -4.27155 -0.00343651 0.1775 0.9735
25.9 -1.46931 0.0298765 0.171531 0.973081
25.905 1.03542 0.0533236 0.168075 0.972773
25.91 2.8093 0.0500845 0.170274 0.972551
25.915 3.35368 0.0157213 0.167447 0.972387
25.92 3.7748 0.0150281 0.165562 0.97227
25.925 2.7486 -0.0470027 0.164305 0.972182
25.93 -0.267487 -0.150725 0.163677 0.97212
25.935 -3.21174 -0.18359 0.159907 0.972073
25.94 -4.51059 -0.205045 0.152996 0.982327
25.945 -4.51059 -0.140524 0.152053 0.976762
25.95 -4.51059 -0.186618 0.149226 0.975457
25.955 -4.51059 -0.14195 0.145142 0.974504
25.96 -4.51059 -0.073211 0.140429 0.973812
25.965 -4.51059 -0.0513212 0.134774 0.973305
25.97 -3.07922 0.0525727 0.128177 0.972939
25.975 -0.322861 0.0663693 0.12158 0.972669
25.98 1.68902 0.0683424 0.11781 0.972475
25.985 2.90092 0.0560705 0.117496 0.972332
25.99 3.15659 0.0271823 0.113411 0.97223
25.995 3.36541 0.0269222 0.109642 0.972153
26 1.15211 -0.0805692 0.106186 0.972099
