# Generated from ../data/13JUL2013/025.dat
time T_s gyro_x steer v
40 0.0827364 -0.00830309 -0.0282743 2.0037
40.02 0.118791 0.00585176 -0.0289027 2.00662
40.04 0.278413 0.0122383 -0.0298451 2.0165
40.06 0.162615 -0.000851614 -0.0304734 2.01822
40.08 0.0928839 -0.000455137 -0.0307876 2.00619
40.1 0.321259 0.011739 -0.0307876 2.00955
40.12 0.280306 0.00740448 -0.0311018 2.02078
40.14 0.0767588 -0.00450196 -0.0311018 2.01468
40.16 0.182615 0.0108638 -0.0314159 2.02368
40.18 0.31142 0.0140354 -0.0317301 2.02874
40.2 0.154993 -0.00184096 -0.0314159 2.02166
40.22 0.0782747 0.00218609 -0.0317301 2.03594
40.24 0.309786 0.01496 -0.0317301 2.03113
40.26 0.295076 0.00512291 -0.0317301 2.00982
40.28 0.0332109 -0.00170039 -0.0317301 2.03367
40.3 0.227443 0.0163459 -0.0320442 2.01768
40.32 0.427736 0.0148641 -0.0317301 2.00458
40.34 0.132855 0.00281833 -0.0314159 2.01161
40.36 0.265046 0.0179594 -0.0314159 2.00885
40.38 0.438937 0.0174367 -0.0311018 2.01238
40.4 0.195939 0.00990339 -0.0307876 2.01958
40.42 0.28907 0.0180534 -0.0301593 2.00405
40.44 0.465697 0.0178694 -0.029531 2.01577
40.46 0.30937 0.00745587 -0.0282743 2.02399
40.48 0.262829 0.0173329 -0.0273319 2.0053
40.5 0.28513 0.0122391 -0.0267035 2.03239
40.52 0.361339 0.0145791 -0.0257611 2.01732
40.54 0.425031 0.0232936 -0.0248186 2.00448
40.56 0.401654 0.0175242 -0.0238761 2.03216
40.58 0.309236 0.012072 -0.0226195 2.01726
40.6 0.369733 0.020131 -0.0213628 2.01475
40.62 0.392523 0.0198171 -0.0204204 2.02845
40.64 0.301957 0.0153832 -0.0188496 2.00907
40.66 0.250022 0.00392857 -0.0169646 2.01244
40.68 0.373144 0.017171 -0.015708 2.00679
40.7 0.380858 0.017296 -0.0141372 1.99123
40.72 0.317282 0.0109286 -0.0128805 1.97718
40.74 0.340544 0.0141879 -0.0113097 1.98395
40.76 0.471175 0.0197275 -0.00942478 1.98542
40.78 0.377533 0.010417 -0.00753982 1.98952
40.8 0.27734 0.0102779 -0.00596903 1.99319
40.82 0.385208 0.0160165 -0.00439823 1.99516
40.84 0.522817 0.018391 -0.00282743 1.99824
40.86 0.236569 0.000935796 -0.000942478 1.9909
40.88 0.22044 0.00756324 0.000628319 1.97855
40.9 0.231901 0.00657155 0.00188496 1.98641
40.92 0.24696 0.00665558 0.00314159 1.98074
40.94 0.360318 0.00663855 0.00408407 1.97423
40.96 0.247704 0.00235929 0.00565487 1.97837
40.98 0.178064 -0.000603364 0.00659734 1.97608
41 0.364697 0.00904653 0.00753982 1.97889
41.02 0.312666 0.00142034 0.00879646 1.97371
41.04 0.0938905 -0.00636892 0.0100531 1.97477
41.06 0.10814 -0.00357261 0.0113097 1.97254
41.08 0.376039 0.00330259 0.0122522 1.9779
41.1 0.156271 -0.00562796 0.0131947 1.97343
41.12 0.0377408 -0.00756356 0.013823 1.97814
41.14 0.196644 -0.00341642 0.0144513 1.97601
41.16 0.150159 -0.00828466 0.0150796 1.97542
41.18 0.0332571 -0.0092337 0.0153938 1.97273
41.2 0.123214 -0.00591175 0.0147655 1.97449
41.22 0.175919 -0.0111 0.0147655 1.96995
41.24 0.120783 -0.00954216 0.0150796 1.97716
41.26 0.11933 -0.00846429 0.0150796 1.97574
41.28 0.0621722 -0.0148761 0.0147655 1.97534
41.3 0.145274 -0.00937836 0.0147655 1.98299
41.32 0.214978 -0.00431114 0.0147655 1.96351
41.34 0.0785935 -0.0154591 0.0147655 1.96792
41.36 -0.0409697 -0.0230077 0.0147655 1.96033
41.38 0.0795913 -0.0148824 0.0147655 1.96954
41.4 0.0968411 -0.00689711 0.0144513 1.97107
41.42 -0.066129 -0.0254652 0.0144513 1.97625
41.44 0.099432 -0.0171996 0.0141372 1.96476
41.46 0.149606 -0.00947887 0.0141372 1.96973
41.48 0.102741 -0.0167143 0.0141372 1.96767
41.5 0.0572804 -0.021149 0.0141372 1.96709
41.52 -0.0414932 -0.0171059 0.013823 1.96692
41.54 0.0623905 -0.0117906 0.013823 1.97631
41.56 0.0846284 -0.0209373 0.0141372 1.97298
41.58 -0.0882983 -0.02493 0.013823 1.97455
41.6 0.077658 -0.0101135 0.0131947 1.97247
41.62 0.162151 -0.019218 0.0125664 1.97441
41.64 -0.0822899 -0.0289476 0.0122522 1.96991
41.66 -0.0529968 -0.0141018 0.0116239 1.96088
41.68 0.127653 -0.0152142 0.0116239 1.97998
41.7 -0.131975 -0.033756 0.0116239 1.96266
41.72 -0.0743648 -0.0186983 0.0109956 1.9702
41.74 0.0393373 -0.0200269 0.0100531 1.96651
41.76 -0.0270234 -0.0244778 0.00942478 1.97022
41.78 -0.0365342 -0.0185237 0.00911062 1.96306
41.8 0.0375625 -0.0209479 0.00879646 1.96924
41.82 -0.0649926 -0.0277694 0.00785398 1.96501
41.84 -0.12727 -0.0229467 0.0069115 1.96979
41.86 0.114155 -0.0166891 0.00596903 1.97114
41.88 -0.0102001 -0.0288765 0.00471239 1.96124
41.9 -0.140113 -0.0264255 0.00345575 1.97756
41.92 0.0151239 -0.0187624 0.00188496 1.96198
41.94 0.108549 -0.0191225 0.000628319 1.95972
41.96 -0.0477341 -0.0261958 -0.000628319 1.96462
41.98 -0.211212 -0.0258518 -0.00188496 1.96968
42 -0.103869 -0.0156511 -0.00408407 1.96291
42.02 0.158953 -0.0135863 -0.00596903 1.96574
42.04 0.0933732 -0.0183702 -0.00753982 1.96402
42.06 -0.185538 -0.0242017 -0.00942478 1.96953
42.08 -0.0251889 -0.0117022 -0.0116239 1.96856
42.1 0.119325 -0.0110975 -0.013823 1.97081
42.12 -0.0677324 -0.019239 -0.0153938 1.98173
42.14 -0.0164146 -0.0105859 -0.0169646 1.97597
42.16 0.132318 -0.00809607 -0.0185354 1.98317
42.18 -0.0338408 -0.0160777 -0.0201062 1.98665
42.2 0.0100407 -0.0131814 -0.0219911 1.98512
42.22 0.111858 -0.00967681 -0.0229336 1.97692
42.24 0.0508633 -0.0100997 -0.0235619 1.98596
42.26 -0.0380516 -0.0126974 -0.0245044 1.98061
42.28 0.0708374 -0.0065501 -0.0260752 1.99045
42.3 0.0132728 -0.00665126 -0.027646 1.98663
42.32 0.0295257 -0.00589441 -0.0289027 1.98661
42.34 0.0124853 -0.00906721 -0.0298451 1.99689
42.36 0.0258789 -0.00754981 -0.0307876 1.98592
42.38 0.135053 0.00384613 -0.0320442 1.99418
42.4 0.0264501 -0.00921467 -0.0333009 1.99796
42.42 0.0542371 0.00108315 -0.0348717 1.99557
42.44 0.15848 0.00480608 -0.0358142 1.9936
42.46 0.0912638 -0.00226793 -0.0364425 2.00255
42.48 0.0785587 -0.000281775 -0.0367566 2.00032
42.5 0.238557 0.00946673 -0.037385 1.99717
42.52 0.235921 0.00786503 -0.0380133 2.00132
42.54 0.137769 0.00626061 -0.0383274 2.00818
42.56 0.223642 0.0071533 -0.0383274 2.01694
42.58 0.141089 0.00209279 -0.0380133 2.01359
42.6 0.0840911 0.0062412 -0.0380133 2.00835
42.62 0.210106 0.00801121 -0.0383274 2.01267
42.64 0.121073 0.0037797 -0.0383274 2.0182
42.66 0.171948 0.012023 -0.0386416 2.01395
42.68 0.339483 0.0131085 -0.0386416 2.00247
42.7 0.228557 0.0056167 -0.0386416 2.0085
42.72 0.192513 0.0132239 -0.0383274 2.00674
42.74 0.303133 0.017009 -0.0380133 2.01178
42.76 0.164812 0.00792203 -0.037385 2.01466
42.78 0.119532 0.0118595 -0.037385 2.00519
42.8 0.293173 0.0168456 -0.0370708 2.01609
42.82 0.290716 0.017296 -0.0370708 2.0181
42.84 0.297659 0.0190141 -0.0367566 2.00364
42.86 0.323558 0.0162167 -0.0364425 2.0066
42.88 0.30593 0.0174251 -0.0361283 2.00744
42.9 0.313175 0.0173049 -0.0355 2.01198
42.92 0.340381 0.0199092 -0.0348717 2.01472
42.94 0.280699 0.0148647 -0.0345575 2.0052
42.96 0.306077 0.0227165 -0.0342434 2.00927
42.98 0.349225 0.0201989 -0.033615 2.01042
43 0.286353 0.0201932 -0.0333009 2.00253
43.02 0.350808 0.0192304 -0.0326726 2.00031
43.04 0.282598 0.0175835 -0.0317301 1.99969
43.06 0.27805 0.0227189 -0.0307876 1.99606
43.08 0.425533 0.0252953 -0.0301593 1.99503
43.1 0.392899 0.0217469 -0.0292168 1.9982
43.12 0.304087 0.0195076 -0.0282743 1.99909
43.14 0.375976 0.0245508 -0.0270177 1.99934
43.16 0.408403 0.0220197 -0.0254469 1.99942
43.18 0.230833 0.0188587 -0.0238761 1.99944
43.2 0.395495 0.0300655 -0.0223053 1.99944
43.22 0.441396 0.0228623 -0.0210487 1.99944
43.24 0.233381 0.0126026 -0.0194779 1.99944
43.26 0.184204 0.013987 -0.0179071 1.9947
43.28 0.330778 0.0236383 -0.0163363 1.99811
43.3 0.291729 0.0185938 -0.0150796 1.99655
43.32 0.228208 0.0137066 -0.013823 1.99611
43.34 0.344956 0.0196691 -0.0128805 1.99505
43.36 0.327727 0.0193519 -0.0116239 2.00166
43.38 0.297437 0.0122254 -0.0103673 1.99532
43.4 0.228159 0.0117805 -0.00879646 1.99354
43.42 0.297016 0.0183713 -0.00753982 1.98749
43.44 0.324686 0.0149963 -0.00628319 1.98211
43.46 0.238639 0.00945289 -0.00502655 1.9931
43.48 0.287496 0.0195627 -0.00376991 1.98485
43.5 0.356896 0.0133241 -0.00219911 1.99388
43.52 0.163948 0.00393933 -0.000628319 1.99442
43.54 0.168516 0.00729205 0.000628319 1.99551
43.56 0.295232 0.0152346 0.0015708 1.99013
43.58 0.244417 0.00848441 0.00251327 1.99682
43.6 0.288454 0.0123978 0.00408407 1.98367
43.62 0.377518 0.0138055 0.00565487 1.98786
43.64 0.152856 0.00105299 0.00722566 1.98115
43.66 0.277128 0.0122111 0.0084823 1.98032
43.68 0.339552 0.00603143 0.0100531 1.98231
43.7 0.127632 -0.00132922 0.0116239 1.97813
43.72 0.182138 0.00687807 0.0128805 1.98422
43.74 0.410768 0.00900168 0.0144513 1.98341
43.76 0.164964 -0.00736848 0.0160221 1.98318
43.78 0.129939 0.00196656 0.0169646 1.97966
43.8 0.275594 0.00551029 0.0179071 1.99241
43.82 0.14903 -0.00641017 0.0194779 1.9812
43.84 0.0643874 -0.00840061 0.0207345 1.98939
43.86 0.204149 -0.00167079 0.021677 1.98035
43.88 0.17075 -0.00403351 0.0223053 1.98915
43.9 0.193034 -0.00437919 0.0229336 1.97552
43.92 0.191084 -0.00565947 0.0238761 1.97749
43.94 0.0091809 -0.0147406 0.0245044 1.96855
43.96 0.0732525 -0.00584537 0.0245044 1.97553
43.98 0.209576 -0.00800931 0.0245044 1.97275
44 0.21463 -0.0082748 0.0245044 1.97197
44.02 0.129662 -0.00718926 0.0245044 1.9683
44.04 0.111261 -0.00866303 0.0245044 1.97418
44.06 0.173569 -0.00935289 0.0245044 1.96892
44.08 0.102657 -0.0124423 0.0245044 1.95463
44.1 -0.0803144 -0.0198761 0.0241903 1.95513
44.12 -0.0446583 -0.0133689 0.0238761 1.95304
44.14 0.267945 -0.00507816 0.0235619 1.94647
44.16 0.147907 -0.0172325 0.0235619 1.95491
44.18 -0.124604 -0.0248398 0.0229336 1.95069
44.2 0.0693719 -0.00654423 0.0219911 1.94581
44.22 0.229907 -0.00997531 0.021677 1.94444
44.24 -0.0795216 -0.0281769 0.021677 1.96506
44.26 -0.0521558 -0.0137564 0.0210487 1.9616
44.28 0.115642 -0.0106307 0.0204204 1.96884
44.3 0.0163518 -0.015879 0.0194779 1.97087
44.32 -0.117225 -0.0210865 0.0185354 1.97396
44.34 -0.0568441 -0.0175211 0.0175929 1.96634
44.36 -0.0720534 -0.0173174 0.0166504 1.97018
44.38 -0.124435 -0.0246308 0.0153938 1.96874
44.4 -0.0135646 -0.0208201 0.0135088 1.95582
44.42 -0.0441423 -0.0167237 0.0113097 1.96353
44.44 -0.0370318 -0.0148714 0.00911062 1.96119
44.46 -0.00519648 -0.0165469 0.00753982 1.96397
44.48 -0.033529 -0.017985 0.00565487 1.96476
44.5 -0.111442 -0.0189723 0.00345575 1.97793
44.52 0.0775862 -0.0120982 0.00125664 1.97689
44.54 0.0908118 -0.0147538 -0.000942478 1.99415
44.56 0.0795248 -0.0101144 -0.00219911 1.98515
44.58 -0.0575941 -0.0191323 -0.00345575 1.99396
44.6 -0.0314832 -0.0125021 -0.00502655 1.98164
44.62 0.135522 -0.00592204 -0.00659734 1.98268
44.64 0.119097 -0.00946266 -0.00753982 1.98506
44.66 -0.0231455 -0.0127212 -0.0084823 1.97913
44.68 0.213195 -5.89561e-05 -0.00879646 1.96557
44.7 0.193024 -0.00698208 -0.00911062 1.98499
44.72 -0.0621593 -0.019053 -0.00942478 1.97911
44.74 0.0592284 -0.00643447 -0.0103673 1.98405
44.76 0.167119 -0.00479024 -0.0106814 1.99986
44.78 0.0452499 -0.010036 -0.0109956 2.00208
44.8 0.152685 -0.00874629 -0.0109956 1.99544
44.82 0.0720264 -0.0120202 -0.0116239 1.99831
44.84 0.0750705 -0.00113807 -0.0122522 1.98063
44.86 0.107843 -0.0104159 -0.0128805 1.96822
44.88 0.00939319 -0.0163424 -0.0128805 1.97668
44.9 -0.011422 -0.00484309 -0.0131947 1.97056
44.92 0.141059 -0.00437989 -0.013823 1.97136
44.94 0.139951 -0.0112197 -0.0141372 1.98785
44.96 0.0226277 -0.00605321 -0.0150796 1.98114
44.98 0.0735319 -0.00473015 -0.015708 1.98809
45 0.136518 -0.00647575 -0.0160221 1.98121
45.02 0.0867066 -0.00355716 -0.0163363 1.97436
45.04 0.0873638 0.000489724 -0.0172788 1.97243
45.06 0.121043 -0.00287934 -0.0182212 1.95908
45.08 0.234746 0.000290584 -0.0191637 1.94818
45.1 0.120709 -0.00670066 -0.019792 1.95539
45.12 0.0876365 -2.90929e-05 -0.0201062 1.93579
45.14 0.14752 -0.00180471 -0.0204204 1.93793
45.16 0.205433 0.00142392 -0.0210487 1.94222
45.18 0.102908 0.000837714 -0.021677 1.94343
45.2 0.0432405 -0.000659725 -0.0223053 1.94377
45.22 0.298962 0.00961543 -0.0223053 1.9589
45.24 0.221074 -0.000795817 -0.0223053 1.95527
45.26 0.0306959 -0.000877288 -0.0229336 1.9656
45.28 0.140708 0.00529507 -0.0235619 1.96175
45.3 0.233622 0.00263038 -0.0241903 1.96542
45.32 0.122465 0.00224496 -0.0241903 1.9489
45.34 0.182335 0.00883107 -0.0238761 1.94531
45.36 0.176228 0.00274886 -0.0238761 1.9443
45.38 0.0976033 -0.00137712 -0.0241903 1.94653
45.4 0.210703 0.00879821 -0.0248186 1.94464
45.42 0.184046 0.00498448 -0.0245044 1.94886
45.44 0.124358 0.00360364 -0.0241903 1.94876
45.46 0.137127 0.00568118 -0.0241903 1.94873
45.48 0.188082 0.0108331 -0.0248186 1.95807
45.5 0.155181 0.00188323 -0.0251327 1.96784
45.52 0.137147 0.00454151 -0.0251327 1.96462
45.54 0.132023 0.00971213 -0.0254469 1.95688
45.56 0.171893 0.00729474 -0.0251327 1.95576
45.58 0.162664 0.000911947 -0.0254469 1.95322
45.6 0.0853367 0.00385998 -0.0254469 1.96027
45.62 0.19032 0.0139391 -0.0257611 1.96026
45.64 0.290956 0.00705213 -0.0254469 1.965
45.66 0.0933205 -0.00165785 -0.0251327 1.96382
45.68 0.137231 0.0147005 -0.0248186 1.95666
45.7 0.282118 0.0129013 -0.0248186 1.96599
45.72 0.187796 0.00242445 -0.0245044 1.95979
45.74 0.227322 0.0146384 -0.0245044 1.96938
45.76 0.392292 0.0172594 -0.0238761 1.96282
45.78 0.284366 0.00599087 -0.0229336 1.96918
45.8 0.161578 0.0114365 -0.0223053 1.96277
45.82 0.326646 0.0140771 -0.021677 1.96571
45.84 0.256036 0.00784335 -0.0201062 1.96654
45.86 0.209423 0.0139336 -0.0191637 1.97275
45.88 0.399546 0.0173729 -0.0179071 1.96946
45.9 0.375098 0.00772044 -0.0166504 1.97357
45.92 0.158062 0.00614462 -0.0153938 1.97221
45.94 0.211104 0.0139417 -0.0141372 1.97434
45.96 0.223641 0.00828618 -0.0128805 1.98271
45.98 0.165497 0.00457984 -0.0116239 1.96343
46 0.288134 0.0150631 -0.0109956 1.9807
46.02 0.284673 0.00952222 -0.0103673 1.95812
46.04 0.265656 0.0096296 -0.00942478 1.96417
46.06 0.382067 0.0129315 -0.0084823 1.96481
46.08 0.312668 0.0140674 -0.00722566 1.96628
46.1 0.20757 0.00566053 -0.00628319 1.96195
46.12 0.349708 0.0133907 -0.00565487 1.96893
46.14 0.351029 0.0116188 -0.00471239 1.96838
46.16 0.230015 0.00820155 -0.00408407 1.97075
46.18 0.27743 0.00785965 -0.00345575 1.97141
46.2 0.336943 0.010412 -0.00251327 1.96131
46.22 0.290667 0.00445665 -0.0015708 1.96981
46.24 0.179596 0.00319262 -0.00125664 1.9561
46.26 0.0744566 0.00199066 -0.000942478 1.96359
46.28 0.279856 0.012401 -0.000314159 1.96118
46.3 0.467006 0.0145791 0.000314159 1.96871
46.32 0.214652 -0.000908455 0.000942478 1.96738
46.34 0.140282 0.00673826 0.00125664 1.97046
46.36 0.437044 0.013414 0.00188496 1.96881
46.38 0.311213 0.00591317 0.00314159 1.97338
46.4 0.0788448 -2.75348e-05 0.00408407 1.96963
46.42 0.305352 0.0130889 0.00534071 1.96081
46.44 0.263025 0.00214071 0.00596903 1.96967
46.46 0.0766936 -0.00172005 0.0069115 1.95607
46.48 0.15422 0.00364055 0.00753982 1.96013
46.5 0.208198 0.000174501 0.0084823 1.9577
46.52 0.13381 -0.00140157 0.00911062 1.96428
46.54 0.0517487 -0.0056791 0.00942478 1.96361
46.56 0.0765859 -0.00429663 0.00911062 1.9694
46.58 0.19067 -0.000793871 0.00911062 1.98132
46.6 0.0775547 -0.00742475 0.00911062 1.97333
46.62 0.0713533 -0.00779589 0.00942478 1.98242
46.64 0.203504 -0.00206161 0.00942478 1.9586
46.66 0.136166 -0.00317854 0.00911062 1.96905
46.68 -0.00155872 -0.00982686 0.00911062 1.9662
46.7 0.171068 -0.00242286 0.00879646 1.96539
46.72 0.125938 -0.00348554 0.00911062 1.96171
46.74 0.0114017 -0.00811586 0.00911062 1.97234
46.76 0.142697 -0.00589327 0.00911062 1.96841
46.78 0.252283 -0.000432038 0.00911062 1.97075
46.8 0.0150073 -0.0117399 0.00879646 1.9689
46.82 0.19677 0.000380049 0.00879646 1.97089
46.84 0.26084 -0.00635616 0.00911062 1.96893
46.86 0.0909403 -0.010182 0.00942478 1.96062
46.88 0.0156685 -0.00956193 0.00942478 1.97991
46.9 0.187234 -0.00486443 0.00942478 1.97293
46.92 0.158428 -0.006002 0.00942478 1.97203
46.94 0.237404 -0.00046816 0.00942478 1.96703
46.96 0.236093 -0.00658243 0.00973894 1.97036
46.98 0.0367068 -0.0135633 0.00942478 1.9631
47 0.101787 -0.00680138 0.00942478 1.96926
47.02 0.186182 -0.00836119 0.00973894 1.96754
47.04 -0.0136818 -0.0147823 0.00973894 1.97397
47.06 0.0649596 -0.00586228 0.00973894 1.97232
47.08 0.221261 -0.00802315 0.00973894 1.97437
47.1 0.0615474 -0.0187096 0.00973894 1.96991
47.12 0.0971358 -0.00367859 0.00942478 1.96089
47.14 0.242703 -0.00877893 0.00942478 1.95689
47.16 0.0511057 -0.0175422 0.00942478 1.95354
47.18 0.058194 -0.0115045 0.00911062 1.97791
47.2 0.0944441 -0.0110921 0.00879646 1.97237
47.22 0.0817398 -0.0131623 0.00816814 1.97662
47.24 0.0489739 -0.0145952 0.00753982 1.97307
47.26 0.0817801 -0.0125269 0.0069115 1.98027
47.28 0.0713564 -0.0108298 0.00628319 1.96935
47.3 0.0562428 -0.0141495 0.00565487 1.97102
47.32 0.0221014 -0.0155988 0.00502655 1.96803
47.34 -0.0447872 -0.0154218 0.00408407 1.97411
47.36 0.125922 -0.00721129 0.00345575 1.9689
47.38 0.13659 -0.010663 0.00251327 1.97435
47.4 -0.0231302 -0.0171793 0.0015708 1.97243
47.42 0.0945519 -0.00874053 0.000314159 1.9744
47.44 0.0834449 -0.011923 -0.000628319 1.97244
47.46 -0.0295359 -0.0133894 -0.00125664 1.97787
47.48 0.0834881 -0.00900534 -0.00219911 1.97342
47.5 0.160561 -0.00802287 -0.00282743 1.97814
47.52 -0.0611863 -0.0167992 -0.00376991 1.97601
47.54 -0.0618529 -0.0106415 -0.00502655 1.97541
47.56 0.0673832 -0.0101804 -0.00628319 1.97021
47.58 -0.00843164 -0.012456 -0.00722566 1.97378
47.6 -0.0264392 -0.00554371 -0.00879646 1.97227
47.62 0.110752 -0.00602042 -0.0103673 1.97782
47.64 0.0696463 -0.0074716 -0.0119381 1.98967
47.66 0.0671207 -0.00461773 -0.0131947 1.9864
47.68 0.0298755 -0.00668878 -0.0147655 1.9818
47.7 0.177252 -0.00344088 -0.015708 1.98525
47.72 0.120044 -0.00612023 -0.0163363 1.97896
47.74 -0.0143999 -0.00891881 -0.0169646 1.98193
47.76 0.0843066 -0.00537061 -0.0179071 1.97456
47.78 0.097153 -0.0079848 -0.0185354 1.97594
47.8 -0.00543137 -0.00620838 -0.0191637 1.97288
47.82 0.0586464 -0.00159014 -0.019792 1.98022
47.84 0.173145 -0.000545529 -0.0201062 1.97408
47.86 0.118257 -0.00480931 -0.0207345 1.98056
47.88 0.174378 0.00612456 -0.0210487 1.97763
47.9 0.29275 0.00556697 -0.0210487 1.98156
47.92 0.103992 -0.00557404 -0.0210487 1.97446
47.94 0.0618599 0.000517215 -0.0210487 1.98066
47.96 0.217027 0.00549992 -0.0210487 1.97895
47.98 0.147255 -0.00510741 -0.0210487 1.99221
48 0.0579593 0.000694182 -0.0210487 1.99143
48.02 0.283351 0.00941226 -0.0213628 1.99467
48.04 0.148698 -0.0062527 -0.0213628 1.99464
48.06 0.0742939 0.000874144 -0.0213628 1.99463
48.08 0.328401 0.0124996 -0.0210487 1.99334
48.1 0.17731 -0.00303118 -0.0207345 1.99298
48.12 0.0500271 0.00110587 -0.0204204 1.98734
48.14 0.27477 0.0114777 -0.0204204 1.98681
48.16 0.304554 0.00869973 -0.0201062 1.99695
48.18 0.192398 0.00223688 -0.019792 1.99622
48.2 0.237786 0.00917488 -0.0194779 1.99602
48.22 0.217119 0.00417931 -0.0188496 1.9925
48.24 0.219836 0.00568382 -0.0188496 1.99151
48.26 0.333159 0.0102543 -0.0188496 1.99246
48.28 0.290064 0.00673072 -0.0182212 1.98927
48.3 0.255498 0.00821619 -0.0179071 1.99658
48.32 0.276634 0.00532279 -0.0172788 1.99864
48.34 0.245627 0.00672441 -0.0169646 1.98893
48.36 0.219648 0.00634061 -0.0169646 1.98474
48.38 0.229219 0.00901135 -0.0166504 1.99636
48.4 0.112479 0.00315074 -0.0163363 1.98231
48.42 0.281471 0.0151983 -0.0160221 1.9897
48.44 0.323823 0.0067511 -0.015708 1.99324
48.46 0.130136 -0.000542906 -0.015708 1.99172
48.48 0.236374 0.0127417 -0.0160221 1.97626
48.5 0.365095 0.00917637 -0.0153938 1.988
48.52 0.162623 -4.38545e-05 -0.0144513 1.97772
48.54 0.216407 0.011364 -0.0135088 1.98365
48.56 0.396224 0.0168925 -0.0128805 1.97397
48.58 0.238533 0.00539449 -0.0125664 1.98734
48.6 0.168917 0.00247419 -0.0116239 1.97501
48.62 0.262347 0.0118416 -0.0109956 1.98289
48.64 0.210559 0.00855231 -0.0100531 1.97377
48.66 0.114106 0.000519289 -0.00973894 1.98729
48.68 0.141201 0.00707304 -0.00973894 1.9853
48.7 0.272392 0.0129779 -0.00973894 1.98473
48.72 0.206103 0.00699194 -0.00973894 1.97429
48.74 0.123718 0.00162169 -0.00942478 1.98744
48.76 0.200101 0.00709669 -0.00911062 1.97505
48.78 0.345186 0.0118389 -0.00911062 1.97262
48.8 0.226914 0.00434035 -0.00879646 1.96719
48.82 0.223561 0.00881998 -0.0084823 1.97516
48.84 0.282697 0.00995699 -0.00785398 1.96791
48.86 0.180572 0.00322742 -0.00753982 1.97061
48.88 0.169124 0.00468225 -0.00722566 1.96791
48.9 0.255177 0.00795601 -0.00722566 1.97407
48.92 0.295347 0.00455319 -0.00659734 1.96889
48.94 0.255727 0.00822806 -0.00596903 1.97434
48.96 0.383992 0.0119868 -0.00534071 1.97242
48.98 0.378511 0.00899626 -0.00408407 1.9744
49 0.115375 -0.00183373 -0.00282743 1.97245
49.02 0.257119 0.00794039 -0.00188496 1.97788
49.04 0.303712 0.0071464 -0.000942478 1.97343
49.06 0.0966412 -0.00362461 0.000314159 1.97816
49.08 0.253989 0.00490492 0.000942478 1.97603
49.1 0.32266 0.00329288 0.00125664 1.97888
49.12 0.196395 0.00190555 0.00219911 1.97716
49.14 0.295802 0.00714499 0.00314159 1.9792
49.16 0.216488 -0.00447104 0.00439823 1.97725
49.18 0.169826 -0.000284235 0.00565487 1.98397
49.2 0.221707 0.0022129 0.00659734 1.97859
49.22 0.220557 -0.00303468 0.00722566 1.98183
49.24 0.111068 -0.00425672 0.00816814 1.98274
49.26 0.262433 0.000258528 0.00911062 1.98299
49.28 0.177407 -0.0067998 0.0100531 1.97961
49.3 0.11272 -0.00353793 0.0103673 1.98211
49.32 0.21664 -0.0012751 0.0103673 1.97936
49.34 0.221429 -0.00176582 0.0103673 1.97859
49.36 0.193823 -0.00365388 0.0106814 1.97837
49.38 0.220728 -0.00169843 0.0109956 1.98859
49.4 0.157864 -0.00890431 0.0109956 1.99041
49.42 0.162692 -0.0074317 0.0109956 1.98064
49.44 0.209407 -0.0032874 0.0109956 1.97894
49.46 0.0940798 -0.00973824 0.0109956 1.97847
49.48 -0.0169295 -0.0106422 0.0106814 1.97359
49.5 0.263909 0.00112392 0.0106814 1.97221
49.52 0.166984 -0.0130048 0.0106814 1.97183
49.54 0.068962 -0.00808401 0.0103673 1.97647
49.56 0.103281 -0.00529784 0.00973894 1.97302
49.58 0.152503 -0.00526726 0.00942478 1.97205
49.6 0.119032 -0.00922834 0.00973894 1.97178
49.62 0.0841482 -0.00737758 0.00942478 1.97516
49.64 0.0991542 -0.00741537 0.00911062 1.9692
49.66 0.126257 -0.00968198 0.00879646 1.97443
49.68 0.0665596 -0.0116424 0.0084823 1.97245
49.7 -0.0466922 -0.016678 0.00816814 1.97535
49.72 -0.101522 -0.0186832 0.00753982 1.97271
49.74 0.0200394 -0.0136535 0.00659734 1.97794
49.76 -0.0185169 -0.0172579 0.00534071 1.97344
49.78 0.0360885 -0.0126834 0.00408407 1.97815
49.8 -0.0567054 -0.0189714 0.00314159 1.9735
49.82 0.0135897 -0.0112224 0.00188496 1.97471
49.84 0.142322 -0.0106579 0.000942478 1.97001
49.86 0.0109065 -0.0181759 -0.000314159 1.97372
49.88 -0.0181075 -0.0129302 -0.00125664 1.96973
49.9 0.181689 -0.0023423 -0.00251327 1.95609
49.92 0.097936 -0.0131808 -0.00282743 1.96835
49.94 -0.151678 -0.0210699 -0.00345575 1.9557
49.96 0.0956619 -0.00396823 -0.00471239 1.96349
49.98 0.158844 -0.00814426 -0.00565487 1.96116
50 -0.0789737 -0.0169255 -0.00659734 1.97217
50.02 0.0715626 -0.00417929 -0.00753982 1.96584
50.04 0.226344 -0.00412161 -0.00816814 1.95722
50.06 0.0323199 -0.013131 -0.0084823 1.96615
50.08 -0.0273386 -0.0108581 -0.00942478 1.95983
50.1 0.156959 -0.00525997 -0.0100531 1.97717
50.12 0.0739094 -0.0123924 -0.0106814 1.97216
50.14 0.0712496 -0.00613569 -0.0106814 1.97656
50.16 0.241485 -0.00234307 -0.0109956 1.97305
50.18 -0.0175538 -0.0147019 -0.0116239 1.97206
50.2 0.048633 -0.00659837 -0.0122522 1.96704
50.22 0.167037 -0.00564101 -0.0122522 1.97511
50.24 -0.0370584 -0.0167562 -0.0122522 1.96918
50.26 -0.00427812 -0.00779368 -0.0125664 1.96751
50.28 0.16102 -0.00412147 -0.0131947 1.96798
50.3 0.180231 -0.00452889 -0.0135088 1.96035
50.32 0.0921159 -0.00246158 -0.013823 1.95328
50.34 0.134477 -0.0057844 -0.0141372 1.95252
50.36 0.0724182 -0.00917688 -0.0141372 1.96259
50.38 0.09247 -0.00132504 -0.0147655 1.95408
50.4 0.130316 -0.00794194 -0.0150796 1.96778
50.42 0.0320173 -0.0104855 -0.015708 1.9646
50.44 0.0848955 -0.00340609 -0.0163363 1.96968
50.46 0.195686 -0.000520203 -0.0169646 1.96859
50.48 0.196525 0.00141933 -0.0175929 1.95325
50.5 0.117626 -0.00392381 -0.0179071 1.96503
50.52 -0.00697434 -0.00857183 -0.0182212 1.95477
50.54 -0.0286286 -0.00514762 -0.0191637 1.95977
50.56 0.106373 0.0013251 -0.0201062 1.9576
50.58 0.210945 0.000533789 -0.0207345 1.96771
50.6 0.150304 0.00238765 -0.0213628 1.95429
50.62 0.164556 0.00207081 -0.0219911 1.95029
50.64 0.186381 0.00337362 -0.0223053 1.96671
50.66 0.0613032 -0.0035981 -0.0223053 1.95178
50.68 0.135739 0.00302964 -0.0223053 1.95893
50.7 0.243601 0.00800143 -0.0223053 1.96211
50.72 0.0748293 -0.00202676 -0.0223053 1.95617
50.74 0.0121523 -0.000261541 -0.0226195 1.94736
50.76 0.165814 0.00807664 -0.0229336 1.9474
50.78 0.176468 0.00347226 -0.0229336 1.95769
50.8 -0.0182996 -0.00541981 -0.0232478 1.94673
50.82 0.0279611 -0.000427634 -0.0238761 1.9447
50.84 0.170706 0.00495065 -0.0248186 1.95232
50.86 0.167268 0.00247547 -0.0254469 1.94878
50.88 0.0456645 0.000504016 -0.0257611 1.94778
50.9 0.129489 0.0105254 -0.0260752 1.94973
50.92 0.244019 0.00639478 -0.0263894 1.94899
50.94 0.0905759 -0.00293301 -0.0267035 1.94533
50.96 0.0769913 0.00799624 -0.0270177 1.9443
50.98 0.177316 0.010826 -0.0273319 1.94401
51 0.192448 0.00358009 -0.0273319 1.94393
51.02 0.064167 0.00443864 -0.0273319 1.94391
51.04 0.231633 0.0155462 -0.0273319 1.9439
51.06 0.253107 0.00259917 -0.0273319 1.95419
51.08 0.147581 0.0072309 -0.0270177 1.94919
51.1 0.298098 0.0170757 -0.0267035 1.94885
51.12 0.282651 0.00186 -0.0260752 1.94781
51.14 0.111682 0.00620432 -0.0251327 1.94975
51.16 0.24289 0.0209777 -0.0248186 1.94555
51.18 0.318403 0.0119746 -0.0241903 1.94782
51.2 0.142802 0.000917259 -0.0235619 1.94846
51.22 0.356687 0.021673 -0.0226195 1.95547
51.24 0.408774 0.016192 -0.021677 1.95336
51.26 0.119397 0.0032992 -0.0210487 1.95131
51.28 0.274154 0.0189146 -0.0204204 1.94599
51.3 0.415762 0.0155374 -0.0191637 1.95824
51.32 0.0985771 -0.000944069 -0.0175929 1.94941
51.34 0.174116 0.0120645 -0.0163363 1.95021
51.36 0.374368 0.0146464 -0.0153938 1.95044
51.38 0.273714 0.0101086 -0.0141372 1.95173
51.4 0.286804 0.0161588 -0.0128805 1.94957
51.42 0.368857 0.0166603 -0.0109956 1.95579
51.44 0.19112 0.00126539 -0.00942478 1.94619
51.46 0.326321 0.0139969 -0.00816814 1.94929
51.48 0.37645 0.0124984 -0.00659734 1.94542
51.5 0.18456 0.00525654 -0.00565487 1.95462
51.52 0.23124 0.0111524 -0.00439823 1.95614
51.54 0.301631 0.0119315 -0.00345575 1.95449
51.56 0.223572 0.00230956 -0.00251327 1.95163
51.58 0.176806 0.000492502 -0.0015708 1.95206
51.6 0.171374 0.00392425 -0.000942478 1.96246
51.62 0.13167 0.0037657 -0.000628319 1.95835
51.64 0.338145 0.013609 0 1.95418
51.66 0.382291 0.00712442 0.00125664 1.9468
51.68 0.11935 -0.00261884 0.00188496 1.94472
51.7 0.182524 0.00867639 0.00251327 1.94413
51.72 0.414515 0.0104774 0.00314159 1.93368
51.74 0.21481 -0.0019411 0.00471239 1.94209
51.76 0.08979 -0.000672944 0.00628319 1.94685
51.78 0.240652 0.00457226 0.00722566 1.94725
51.8 0.226967 -0.00031463 0.00785398 1.94959
51.82 -0.00151087 -0.00621469 0.0084823 1.95025
51.84 0.0946565 -0.00359758 0.00911062 1.94569
51.86 0.117347 -0.00491958 0.00973894 1.9316
51.88 0.108079 -0.000405019 0.00973894 1.95179
51.9 0.111856 -0.00221591 0.00942478 1.94981
51.92 0.141019 -0.00412271 0.00942478 1.94557
51.94 0.163799 -0.00306122 0.00911062 1.95466
51.96 0.111408 -0.0030976 0.00911062 1.95314
51.98 0.080674 -0.00748209 0.00942478 1.9465
52 0.173564 -0.00373755 0.00911062 1.94118
52.02 0.0677038 -0.00624652 0.00911062 1.95342
52.04 0.0725662 -0.00772455 0.00911062 1.93524
52.06 0.195641 -0.00403323 0.00911062 1.93907
52.08 0.160511 -0.0033509 0.00942478 1.94254
52.1 0.0181115 -0.00659169 0.00942478 1.93323
52.12 0.119655 -0.00498693 0.00942478 1.93721
52.14 0.108758 -0.0114122 0.00911062 1.94202
52.16 0.0542692 -0.00507764 0.00911062 1.94337
52.18 0.251044 -0.000744673 0.00911062 1.93649
52.2 0.192571 -0.00980858 0.00942478 1.94181
52.22 -0.0408903 -0.0127544 0.00942478 1.94331
52.24 0.0422987 -0.00331478 0.00911062 1.94122
52.26 0.222389 -0.00614428 0.00911062 1.95343
52.28 0.0629946 -0.013831 0.00911062 1.94898
52.3 0.0664771 -0.0080065 0.00911062 1.94879
52.32 0.292516 -0.0024344 0.00911062 1.95557
52.34 0.0725978 -0.0135721 0.00911062 1.95087
52.36 0.0298871 -0.00713236 0.00879646 1.94112
52.38 0.175398 -0.0100713 0.00911062 1.94312
52.4 -0.0100854 -0.0187128 0.00942478 1.94368
52.42 -0.0621352 -0.0138299 0.00911062 1.94384
52.44 0.205827 -0.0043203 0.00879646 1.94389
52.46 0.15152 -0.0115684 0.00879646 1.9439
52.48 -0.0505728 -0.0136915 0.0084823 1.93362
52.5 0.235233 -0.00121707 0.0084823 1.94207
52.52 0.143958 -0.0150003 0.0084823 1.93993
52.54 0.0607775 -0.0060126 0.00816814 1.92998
52.56 0.094772 -0.00938863 0.00785398 1.9363
52.58 0.0918645 -0.0119619 0.00753982 1.9383
52.6 0.117586 -0.00626581 0.00722566 1.92952
52.62 0.0901954 -0.0120896 0.00659734 1.93617
52.64 0.0752769 -0.0134789 0.00628319 1.93827
52.66 0.0246283 -0.0133716 0.00596903 1.92951
52.68 -0.0136278 -0.0153454 0.00502655 1.93271
52.7 -0.104827 -0.0151373 0.00408407 1.927
52.72 -0.0177306 -0.00778308 0.00314159 1.9274
52.74 0.180194 -0.00356188 0.00219911 1.93211
52.76 0.0494474 -0.0185573 0.00125664 1.92684
52.78 0.0687499 -0.00567781 -0.000314159 1.92513
52.8 0.197696 -0.000503599 -0.0015708 1.9337
52.82 -0.0279706 -0.0177642 -0.00219911 1.92477
52.84 -0.120059 -0.0133798 -0.00282743 1.92454
52.86 0.0790679 -0.00319302 -0.00376991 1.93353
52.88 0.0831534 -0.0107517 -0.00502655 1.93372
52.9 -0.0816766 -0.0169957 -0.00628319 1.93283
52.92 0.0385259 -0.00550873 -0.00753982 1.92452
52.94 0.0331778 -0.00956175 -0.00879646 1.93224
52.96 -0.134394 -0.0206074 -0.00973894 1.92213
52.98 -0.06018 -0.0100971 -0.0116239 1.92603
53 0.130828 0.000581262 -0.0135088 1.93172
53.02 0.0646438 -0.0084747 -0.0147655 1.92673
53.04 0.0457854 -0.00728528 -0.0160221 1.92732
53.06 0.0604703 -0.00262176 -0.0169646 1.93684
53.08 0.103688 -0.00787098 -0.0179071 1.92565
53.1 0.0386308 -0.0139868 -0.0188496 1.92479
53.12 0.0643304 0.00361393 -0.019792 1.9336
53.14 0.0387955 0.000847512 -0.0207345 1.91999
53.16 0.0745552 -0.00930732 -0.0213628 1.93001
53.18 0.0743221 3.43367e-05 -0.0223053 1.92372
53.2 0.0730554 0.00516041 -0.0229336 1.92854
53.22 0.12032 -0.00539794 -0.0235619 1.91855
53.24 0.105144 0.000334293 -0.0241903 1.92027
53.26 0.127947 0.0056528 -0.0248186 1.92758
53.28 0.220566 0.000257598 -0.0251327 1.91829
53.3 0.188287 -0.000675561 -0.0251327 1.933
53.32 0.0537661 0.00511315 -0.0251327 1.93485
53.34 0.164384 0.00562065 -0.0254469 1.93409
53.36 0.229427 -8.51607e-05 -0.0251327 1.93639
53.38 0.0465921 0.00349439 -0.0251327 1.92898
53.4 0.210557 0.010973 -0.0251327 1.93349
53.42 0.32423 0.00330773 -0.0251327 1.92248
53.44 0.10832 0.00462426 -0.0251327 1.92612
53.46 0.169705 0.0102998 -0.0251327 1.92923
53.48 0.328497 0.0109251 -0.0245044 1.92351
53.5 0.0851704 -0.000709455 -0.0238761 1.92167
53.52 0.0887022 0.0083631 -0.0235619 1.93524
53.54 0.334583 0.0154866 -0.0232478 1.92045
53.56 0.221049 0.00319698 -0.0232478 1.93015
53.58 0.196103 0.0121563 -0.0229336 1.92376
53.6 0.350637 0.0112604 -0.0226195 1.91828
53.62 0.266225 0.0064831 -0.0219911 1.912
53.64 0.226936 0.0110023 -0.021677 1.91844
53.66 0.297606 0.0122334 -0.021677 1.91679
53.68 0.315437 0.0122954 -0.0213628 1.91287
53.7 0.285692 0.0135737 -0.0207345 1.91774
53.72 0.32052 0.0143085 -0.0201062 1.92005
53.74 0.371578 0.0125275 -0.0191637 1.91724
53.76 0.349626 0.0092947 -0.0179071 1.91299
53.78 0.245235 0.00869656 -0.0169646 1.90748
53.8 0.102702 0.00477269 -0.0160221 1.91476
53.82 0.306279 0.0156978 -0.0153938 1.91575
53.84 0.372589 0.0118449 -0.0144513 1.91602
53.86 0.176698 0.00707301 -0.0141372 1.90834
53.88 0.21394 0.0148656 -0.0141372 1.915
53.9 0.378861 0.0119886 -0.0135088 1.91581
53.92 0.232522 0.00753404 -0.0125664 1.9113
53.94 0.146819 0.00728562 -0.0116239 1.91823
53.96 0.386816 0.0159628 -0.0109956 1.92147
53.98 0.248764 0.00542125 -0.0103673 1.91764
54 0.0991389 0.00235029 -0.00973894 1.91656
54.02 0.277269 0.0147622 -0.00911062 1.91971
54.04 0.279832 0.00967099 -0.00816814 1.91462
54.06 0.110877 -0.00227048 -0.00722566 1.91225
54.08 0.272867 0.0107745 -0.0069115 1.91756
54.1 0.320652 0.0126754 -0.0069115 1.91653
54.12 0.195323 0.00610089 -0.00628319 1.92653
54.14 0.130099 0.000457218 -0.00596903 1.918
54.16 0.250845 0.0112888 -0.00534071 1.91918
54.18 0.224354 0.0072926 -0.00502655 1.92174
54.2 0.203522 0.00154139 -0.00471239 1.91771
54.22 0.180339 0.0127379 -0.00471239 1.9191
54.24 0.234471 0.0111681 -0.00439823 1.92043
54.26 0.258921 0.00205527 -0.00408407 1.92763
54.28 0.188326 0.00192253 -0.00345575 1.91831
54.3 0.149516 0.00556914 -0.00282743 1.90898
54.32 0.257854 0.00677466 -0.00251327 1.91993
54.34 0.292542 0.00776322 -0.00219911 1.92749
54.36 0.265689 0.00831063 -0.00125664 1.91827
54.38 0.275847 0.00518361 -0.000314159 1.92019
54.4 0.281784 0.000435063 0.000942478 1.93231
54.42 0.157466 0.00175802 0.0015708 1.91963
54.44 0.338032 0.0101491 0.00282743 1.93338
54.46 0.238632 -0.00340548 0.00408407 1.93496
54.48 0.154003 0.00616414 0.00534071 1.93412
54.5 0.275365 0.00886249 0.00659734 1.93294
54.52 0.266712 -0.00648126 0.00753982 1.92801
54.54 0.106918 0.000377077 0.00816814 1.92976
54.56 0.21102 0.00389423 0.00911062 1.93172
54.58 0.256946 -0.00234846 0.0106814 1.92767
54.6 0.0720064 -0.00831019 0.0122522 1.93564
54.62 0.140711 0.000183017 0.0128805 1.94158
54.64 0.166067 -0.00661144 0.0135088 1.93296
54.66 0.0504746 -0.0125338 0.013823 1.93368
54.68 0.14128 -0.00210209 0.0141372 1.93757
54.7 0.216418 -0.00503703 0.0144513 1.92931
54.72 0.0612656 -0.0137769 0.0147655 1.93013
54.74 0.0830182 -0.0108277 0.0147655 1.93657
54.76 0.29446 -0.00469282 0.0144513 1.93155
54.78 0.0879048 -0.0124055 0.0144513 1.93328
54.8 0.202756 -0.000146174 0.0144513 1.93745
54.82 0.331615 0.00391278 0.0147655 1.9318
54.84 0.131802 -0.011773 0.0150796 1.93335
54.86 0.0513749 -0.00843514 0.0150796 1.92719
54.88 0.0341712 -0.0107446 0.0147655 1.92997
54.9 -0.0129309 -0.0122716 0.0144513 1.93284
54.92 0.186595 -0.00118738 0.0141372 1.92704
54.94 0.188106 -0.0073763 0.0141372 1.92993
54.96 -0.0442881 -0.0176889 0.0135088 1.93757
54.98 0.129042 -0.00576159 0.0128805 1.92838
55 0.191199 -0.00916941 0.0125664 1.9303
55.02 -0.0325817 -0.0152516 0.0125664 1.93768
55.04 -0.0725762 -0.0139421 0.0122522 1.92589
55.06 0.191168 -0.00489293 0.0119381 1.92486
55.08 -0.0404156 -0.0185062 0.0109956 1.93614
55.1 -0.166223 -0.0198107 0.0100531 1.92071
55.12 0.0478806 -0.0102804 0.00911062 1.93023
55.14 -0.00493994 -0.0172417 0.0084823 1.92379
55.16 -0.096108 -0.0191605 0.00753982 1.91829
55.18 -0.00968978 -0.01475 0.00596903 1.91926
55.2 0.0695899 -0.0167916 0.00439823 1.92522
55.22 0.001883 -0.0157819 0.00282743 1.9315
55.24 -0.0591756 -0.0169623 0.0015708 1.9194
55.26 -0.0391658 -0.0151535 0.000314159 1.92303
55.28 0.025866 -0.0113384 -0.00125664 1.92282
55.3 0.0467082 -0.0104023 -0.00282743 1.91456
55.32 -0.000494927 -0.0139119 -0.00471239 1.91821
55.34 0.0436837 -0.0105683 -0.00628319 1.92018
55.36 0.11778 -0.00405167 -0.00753982 1.92504
55.38 -0.0597434 -0.0158468 -0.00879646 1.91758
55.4 0.00284702 -0.00875915 -0.0103673 1.90877
55.42 0.147157 -0.00146003 -0.0119381 1.91987
55.44 0.0773264 -0.00638885 -0.0128805 1.92747
55.46 0.0169284 -0.00923136 -0.013823 1.91351
55.48 0.135828 -0.00261875 -0.0150796 1.91538
55.5 0.0588284 -0.0106888 -0.0160221 1.92066
55.52 0.0425877 -0.00491968 -0.0169646 1.91394
55.54 0.200574 0.00200914 -0.0175929 1.91076
55.56 0.104347 -0.00649937 -0.0179071 1.90433
55.58 0.0978976 -0.000188781 -0.0179071 1.91387
55.6 0.314724 0.00643392 -0.0182212 1.91204
55.62 0.127402 -0.00753297 -0.0185354 1.91023
55.64 -0.0137079 -0.00571058 -0.0191637 1.91447
55.66 0.230251 0.00627303 -0.0191637 1.92041
55.68 0.113931 -0.006385 -0.0188496 1.91388
55.7 -0.0439924 -0.0061569 -0.0188496 1.91075
55.72 0.203057 0.0037264 -0.019792 1.91807
55.74 0.251756 0.00103249 -0.0201062 1.91668
55.76 -0.00798635 -0.00845199 -0.0204204 1.91283
55.78 0.132659 0.0038787 -0.0204204 1.91045
55.8 0.219618 0.00405334 -0.0207345 1.90425
55.82 0.0327697 -0.00340193 -0.0210487 1.90312
55.84 0.161282 0.00393507 -0.021677 1.8962
55.86 0.377438 0.00855641 -0.0219911 1.90337
55.88 0.17765 0.00136298 -0.0219911 1.89499
55.9 0.162057 0.00141049 -0.021677 1.89749
55.92 0.26435 0.0069639 -0.021677 1.9072
55.94 0.141108 0.000975282 -0.0219911 1.89736
55.96 0.0952558 0.00296157 -0.0223053 1.90371
55.98 0.12143 0.00113142 -0.0223053 1.89509
56 0.000398487 -0.00249446 -0.0223053 1.91128
56.02 0.198324 0.0114427 -0.0226195 1.91226
56.04 0.376636 0.00921831 -0.0229336 1.91158
56.06 0.189956 0.00292365 -0.0229336 1.9101
56.08 0.149775 0.00700533 -0.0232478 1.90415
56.1 0.28418 0.0105185 -0.0232478 1.9113
56.12 0.132976 -0.00159754 -0.0226195 1.91131
56.14 0.0955996 0.00807818 -0.0223053 1.91003
56.16 0.214812 0.0091489 -0.0223053 1.91787
56.18 0.122953 4.05458e-05 -0.0223053 1.92137
56.2 0.0341665 0.00549058 -0.0226195 1.91415
56.22 0.142499 0.00421615 -0.0229336 1.91083
56.24 0.0916302 0.00305858 -0.0229336 1.90435
56.26 0.112931 0.00792096 -0.0229336 1.91136
56.28 0.0707335 -0.00202498 -0.0232478 1.91479
56.3 0.176606 0.00697882 -0.0235619 1.91575
56.32 0.196923 0.0124271 -0.0238761 1.92423
56.34 0.09715 0.00295347 -0.0238761 1.93597
56.36 0.132844 0.00452135 -0.0238761 1.92066
56.38 0.239107 0.0158557 -0.0238761 1.93115
56.4 0.222138 0.00772157 -0.0235619 1.92405
56.42 0.120206 0.00222544 -0.0235619 1.91836
56.44 0.267507 0.0167914 -0.0235619 1.93302
56.46 0.266173 0.0140428 -0.0232478 1.92803
56.48 0.102995 0.000615363 -0.0226195 1.93323
56.5 0.180483 0.0135474 -0.0223053 1.9409
56.52 0.372435 0.0214324 -0.0223053 1.93025
56.54 0.251033 0.00513524 -0.021677 1.93385
56.56 0.182878 0.0103682 -0.0210487 1.93761
56.58 0.341908 0.0181066 -0.0204204 1.92933
56.6 0.282642 0.00616674 -0.019792 1.93359
56.62 0.162635 0.00979351 -0.0191637 1.93754
56.64 0.400867 0.0183679 -0.0182212 1.93959
56.66 0.346849 0.00893223 -0.0169646 1.93794
56.68 0.237244 0.0120804 -0.015708 1.94222
56.7 0.41809 0.0215713 -0.0144513 1.94091
56.72 0.274284 0.00168605 -0.0135088 1.93831
56.74 0.181802 0.00746966 -0.0122522 1.93758
56.76 0.386278 0.0239369 -0.0106814 1.9396
56.78 0.287435 0.00399726 -0.00879646 1.94017
56.8 0.0663674 0.00172825 -0.00722566 1.93811
56.82 0.26401 0.0146955 -0.00659734 1.94227
56.84 0.304976 0.010279 -0.00565487 1.94344
56.86 0.126622 0.00240012 -0.00502655 1.94377
56.88 0.324933 0.0148042 -0.00408407 1.94387
56.9 0.355869 0.00789303 -0.00314159 1.94389
56.92 0.243071 0.00585179 -0.00219911 1.9439
56.94 0.321958 0.0127569 -0.0015708 1.94865
56.96 0.471839 0.0162443 -0.000942478 1.94524
56.98 0.287395 0.00434956 0.000628319 1.94176
57 0.244459 0.00777406 0.00188496 1.9433
57.02 0.234568 0.00623275 0.00314159 1.93899
57.04 0.234594 0.0032209 0.00408407 1.93654
57.06 0.235748 0.00500677 0.00502655 1.93931
57.08 0.146489 -0.000551007 0.00596903 1.93786
57.1 0.169315 0.00299074 0.0069115 1.93622
57.12 0.278619 0.00599616 0.00753982 1.93922
57.14 0.334727 0.00791429 0.00816814 1.93784
57.16 0.165084 -0.000782185 0.0084823 1.93874
57.18 0.250278 0.00682695 0.00879646 1.93993
57.2 0.306862 0.00440165 0.00973894 1.94278
57.22 0.175077 -0.000256015 0.0113097 1.94013
57.24 0.166241 -0.00167605 0.0122522 1.93255
57.26 0.256552 0.0048346 0.0128805 1.94177
57.28 0.137068 -0.00199236 0.0131947 1.93984
57.3 0.0771446 -0.00576385 0.0135088 1.92902
57.32 0.192823 -0.00463534 0.0141372 1.92574
57.34 0.172753 -0.00326822 0.0150796 1.93387
57.36 0.0715903 -0.00840998 0.0150796 1.92481
57.38 0.0862693 -0.0056832 0.0144513 1.92456
57.4 0.18458 0.00125047 0.0141372 1.93606
57.42 0.139292 -0.00663285 0.0141372 1.94169
57.44 -0.0189605 -0.0154361 0.0144513 1.93853
57.46 0.114627 -0.00271522 0.0141372 1.93641
57.48 0.223537 0.00149811 0.013823 1.92899
57.5 0.0712631 -0.0167457 0.0135088 1.92573
57.52 0.0842153 -0.00200917 0.0131947 1.93387
57.54 0.146634 -0.00182281 0.0131947 1.93381
57.56 0.0596639 -0.0147486 0.0131947 1.93286
57.58 0.071569 -0.00824437 0.0131947 1.92453
57.6 0.174103 0.000308646 0.0128805 1.93224
57.62 0.0810445 -0.0175791 0.0128805 1.93241
57.64 -0.0955546 -0.0161135 0.0125664 1.93815
57.66 0.152181 -0.00161743 0.0119381 1.93754
57.68 0.132634 -0.0135558 0.0119381 1.94211
57.7 -0.0135422 -0.0173546 0.0119381 1.94088
57.72 0.138457 -0.000962847 0.0116239 1.94305
57.74 0.125872 -0.0137754 0.0113097 1.93892
57.76 -0.0670874 -0.0198189 0.0109956 1.93998
57.78 0.183886 0.000169126 0.0109956 1.94027
57.8 0.228489 -0.00885017 0.0106814 1.93812
57.82 -0.111374 -0.0226051 0.0106814 1.93629
57.84 0.0460408 -0.00467125 0.0100531 1.93923
57.86 0.229603 -0.00626946 0.00973894 1.94257
57.88 -0.0426039 -0.0201672 0.00973894 1.94007
57.9 -0.0241458 -0.00677388 0.00911062 1.95311
57.92 0.223202 -0.00635522 0.00879646 1.94543
57.94 0.0163846 -0.0216909 0.0084823 1.94433
57.96 -0.117478 -0.016448 0.00785398 1.94402
57.98 0.140314 -0.00701889 0.0069115 1.93365
58 0.0936596 -0.0178592 0.00628319 1.93733
58.02 -0.0120571 -0.01361 0.00534071 1.94205
58.04 0.15334 -0.00633737 0.00439823 1.94338
58.06 0.10831 -0.0102139 0.00314159 1.94123
58.08 0.00828895 -0.0159049 0.00219911 1.9479
58.1 0.0514331 -0.0107509 0.000628319 1.94503
58.12 0.0602655 -0.0111999 -0.000628319 1.93393
58.14 0.0504214 -0.01223 -0.00188496 1.94215
58.16 0.0205698 -0.0134431 -0.00345575 1.94341
58.18 -0.0146554 -0.0105191 -0.00502655 1.9403
58.2 0.117736 -0.00400515 -0.00659734 1.9326
58.22 0.277363 -0.000312821 -0.00785398 1.94178
58.24 0.105022 -0.00654886 -0.00911062 1.93985
58.26 0.102854 -0.00732654 -0.0106814 1.94025
58.28 0.200128 -0.00224587 -0.0116239 1.94289
58.3 0.0909033 -0.00623641 -0.0122522 1.94837
58.32 0.038465 -0.00512106 -0.0125664 1.94517
58.34 0.109872 -0.00457609 -0.0128805 1.95707
58.36 0.12194 -0.00308479 -0.013823 1.94655
58.38 -0.0241986 -0.0104632 -0.0147655 1.94119
58.4 0.144571 -0.00175832 -0.0153938 1.92939
58.42 0.151331 0.000873598 -0.015708 1.93059
58.44 0.0166411 -0.00185873 -0.0163363 1.93301
58.46 0.0128109 -0.00742568 -0.0172788 1.94084
58.48 0.0976711 -0.0041513 -0.0188496 1.94304
58.5 0.122927 -0.000649556 -0.0201062 1.94366
58.52 0.0338553 -0.00901893 -0.0207345 1.94383
58.54 0.0580329 -0.00441939 -0.0213628 1.9336
58.56 0.185303 0.00785103 -0.0223053 1.93134
58.58 0.15406 -0.000863982 -0.0232478 1.93216
58.6 0.054016 -0.00326035 -0.0238761 1.92779
58.62 0.204527 0.0102469 -0.0245044 1.9297
58.64 0.193066 0.00382301 -0.0245044 1.92616
58.66 -0.00910982 -0.00947808 -0.0245044 1.92493
58.68 0.122095 0.00586432 -0.0251327 1.93142
58.7 0.245174 0.00902092 -0.0254469 1.92412
58.72 0.0636231 -0.00623462 -0.0257611 1.92436
58.74 0.161543 0.0116123 -0.0260752 1.93348
58.76 0.319606 0.0144372 -0.0260752 1.92816
58.78 0.211777 0.00131332 -0.0257611 1.93578
58.8 0.0876846 0.00260929 -0.0257611 1.93564
58.82 0.287711 0.0114997 -0.0257611 1.93906
58.84 0.147808 -0.00174717 -0.0254469 1.93433
58.86 0.0902067 0.00346327 -0.0254469 1.92494
58.88 0.407717 0.0200948 -0.0251327 1.93236
58.9 0.313058 0.00571352 -0.0251327 1.92216
58.92 0.081658 0.00198935 -0.0248186 1.91783
58.94 0.383013 0.0202934 -0.0245044 1.92942
58.96 0.339609 0.00733834 -0.0235619 1.91881
58.98 0.145313 0.00554867 -0.0226195 1.92035
59 0.334348 0.0163304 -0.0219911 1.92207
59.02 0.360785 0.0110021 -0.0210487 1.9178
59.04 0.10846 0.000653914 -0.0204204 1.91912
59.06 0.268554 0.0146352 -0.019792 1.92043
59.08 0.413306 0.018646 -0.0191637 1.92511
59.1 0.263451 0.0085677 -0.0185354 1.9176
59.12 0.318549 0.0151045 -0.0175929 1.92252
59.14 0.476193 0.0154223 -0.0169646 1.92268
59.16 0.323598 0.00864618 -0.0160221 1.93172
59.18 0.262021 0.00984682 -0.0150796 1.92198
59.2 0.34714 0.0151961 -0.0141372 1.92599
59.22 0.277365 0.00937354 -0.0131947 1.92919
59.24 0.225566 0.00540563 -0.0122522 1.91875
59.26 0.129304 0.00606221 -0.0116239 1.92033
59.28 0.211215 0.0142267 -0.0109956 1.93235
59.3 0.418507 0.0151521 -0.0103673 1.91964
59.32 0.381136 0.00722417 -0.00973894 1.92993
59.34 0.156106 0.0034288 -0.00911062 1.92716
59.36 0.339624 0.0129112 -0.00879646 1.92953
59.38 0.428023 0.0114989 -0.00753982 1.91884
59.4 0.135144 -0.000343427 -0.00628319 1.92035
59.42 0.220702 0.0140405 -0.00502655 1.92761
59.44 0.451158 0.013033 -0.00408407 1.9183
59.46 0.173487 -0.00263645 -0.00314159 1.93301
59.48 0.135525 0.00787665 -0.00251327 1.93486
59.5 0.280823 0.00748059 -0.00188496 1.93409
59.52 0.168823 -0.00454657 -0.000942478 1.93293
59.54 0.125726 0.00281658 -0.000314159 1.92801
59.56 0.309652 0.013573 -0.000314159 1.93322
59.58 0.225043 0.00512479 -0.000314159 1.93615
59.6 0.184117 0.00190307 0 1.92891
59.62 0.251599 0.0112597 0.000314159 1.936
59.64 0.190811 0.0037223 0.000628319 1.92793
59.66 0.268836 0.00427833 0.000942478 1.92766
59.68 0.256397 0.00567 0.00125664 1.92967
59.7 0.198948 0.00137626 0.0015708 1.92363
59.72 0.265995 0.00166416 0.00251327 1.9217
59.74 0.264719 0.00225225 0.00314159 1.93274
59.76 0.182003 0.00167848 0.00408407 1.91975
59.78 0.152426 -0.00523417 0.00502655 1.93341
59.8 0.175378 -0.00141522 0.00534071 1.93497
59.82 0.14992 0.000522865 0.00596903 1.93412
59.84 0.199239 -0.00298302 0.00659734 1.9364
59.86 0.347057 0.00430899 0.00722566 1.92898
59.88 0.152482 -0.00475909 0.00816814 1.9335
59.9 0.16999 -0.00221035 0.00911062 1.93623
59.92 0.26659 -0.000891996 0.00973894 1.93922
59.94 0.0869399 -0.00778992 0.0106814 1.93532
59.96 0.0897569 -0.00462863 0.0113097 1.94149
59.98 0.379162 -5.06171e-05 0.0122522 1.9407
60 0.0965057 -0.0123489 0.0128805 1.93574
