# Generated from ../data/13JUL2013/025.dat
time T_s gyro_x steer v
40 0.0827364 -0.00830309 -0.0282743 2.0037
40.005 0.0962554 0.00185454 -0.0285885 2.01283
40.01 0.0562167 -0.00340758 -0.0285885 2.01673
40.015 0.0655491 0.000936586 -0.0285885 2.00929
40.02 0.118791 0.00585176 -0.0289027 2.00662
40.025 0.141129 0.00421276 -0.0292168 2.00467
40.03 0.194678 0.00814516 -0.0292168 2.00325
40.035 0.207171 0.0053087 -0.029531 2.0125
40.04 0.278413 0.0122383 -0.0298451 2.0165
40.045 0.292162 0.00845799 -0.0298451 2.00912
40.05 0.288109 0.00704024 -0.0298451 2.00649
40.055 0.227585 0.00105747 -0.0301593 2.01486
40.06 0.162615 -0.000851614 -0.0304734 2.01822
40.065 0.129242 0.00069105 -0.0304734 2.02066
40.07 0.120159 0.00258932 -0.0304734 2.01215
40.075 0.131909 0.00444606 -0.0304734 2.0087
40.08 0.0928839 -0.000455137 -0.0307876 2.00619
40.085 0.122238 0.0056468 -0.0307876 2.00435
40.09 0.218419 0.0133148 -0.0307876 2.01331
40.095 0.289383 0.0135723 -0.0307876 2.01708
40.1 0.321259 0.011739 -0.0307876 2.00955
40.105 0.281398 0.00514114 -0.0307876 2.0068
40.11 0.295294 0.00986191 -0.0311018 2.01509
40.115 0.297132 0.00918436 -0.0311018 2.01838
40.12 0.280306 0.00740448 -0.0311018 2.02078
40.125 0.304735 0.0114332 -0.0307876 2.01224
40.13 0.230093 0.00170176 -0.0307876 2.00877
40.135 0.176168 0.00188179 -0.0307876 2.00623
40.14 0.0767588 -0.00450196 -0.0311018 2.01468
40.145 0.057801 0.00122494 -0.0311018 2.01808
40.15 0.130076 0.0105135 -0.0314159 2.02056
40.155 0.125179 0.00434194 -0.0314159 2.02236
40.16 0.182615 0.0108638 -0.0314159 2.02368
40.165 0.177645 0.00583785 -0.0317301 2.03492
40.17 0.244455 0.0137326 -0.0317301 2.03009
40.175 0.267166 0.0109501 -0.0317301 2.0293
40.18 0.31142 0.0140354 -0.0317301 2.02874
40.185 0.34185 0.014082 -0.0317301 2.01803
40.19 0.299502 0.00716556 -0.0314159 2.01299
40.195 0.26205 0.00650928 -0.0314159 2.01959
40.2 0.154993 -0.00184096 -0.0314159 2.02166
40.205 0.135523 0.00463507 -0.0317301 2.02317
40.21 0.13145 0.00572552 -0.0317301 2.02427
40.215 0.104506 0.00315992 -0.0317301 2.02507
40.22 0.0782747 0.00218609 -0.0317301 2.03594
40.225 0.114136 0.00815408 -0.0317301 2.04111
40.23 0.24323 0.019448 -0.0317301 2.03459
40.235 0.263363 0.0114421 -0.0317301 2.03258
40.24 0.309786 0.01496 -0.0317301 2.03113
40.245 0.354629 0.016279 -0.0317301 2.03006
40.25 0.363819 0.0140067 -0.0317301 2.019
40.255 0.379638 0.0151324 -0.0317301 2.01369
40.26 0.295076 0.00512291 -0.0317301 2.00982
40.265 0.252371 0.00721322 -0.0317301 2.01729
40.27 0.15072 -0.000167277 -0.0317301 2.01999
40.275 0.107921 0.00321511 -0.0317301 2.02195
40.28 0.0332109 -0.00170039 -0.0317301 2.03367
40.285 0.0699129 0.0084969 -0.0320442 2.02916
40.29 0.11009 0.00977178 -0.0320442 2.02864
40.295 0.148062 0.0106565 -0.0320442 2.02825
40.3 0.227443 0.0163459 -0.0320442 2.01768
40.305 0.275671 0.0152487 -0.0320442 2.01273
40.31 0.423308 0.027258 -0.0320442 2.00912
40.315 0.445223 0.0183144 -0.0320442 2.00649
40.32 0.427736 0.0148641 -0.0317301 2.00458
40.325 0.377947 0.0111833 -0.0317301 2.01347
40.33 0.254714 0.0021497 -0.0317301 2.0172
40.335 0.204647 0.00636106 -0.0314159 2.01992
40.34 0.132855 0.00281833 -0.0314159 2.01161
40.345 0.149131 0.00993467 -0.0314159 2.01859
40.35 0.121387 0.00575832 -0.0314159 2.02094
40.355 0.189848 0.0153607 -0.0314159 2.01235
40.36 0.265046 0.0179594 -0.0314159 2.00885
40.365 0.339553 0.0199288 -0.0311018 2.00629
40.37 0.426821 0.0235332 -0.0311018 2.00443
40.375 0.44151 0.0185471 -0.0311018 2.00308
40.38 0.438937 0.0174367 -0.0311018 2.01238
40.385 0.398262 0.0135655 -0.0311018 2.0164
40.39 0.311039 0.00750508 -0.0307876 2.00905
40.395 0.212568 0.00394274 -0.0307876 2.01673
40.4 0.195939 0.00990339 -0.0307876 2.01958
40.405 0.187327 0.0102399 -0.0304734 2.01136
40.41 0.214541 0.0137833 -0.0304734 2.00813
40.415 0.232955 0.0136508 -0.0304734 2.00577
40.42 0.28907 0.0180534 -0.0301593 2.00405
40.425 0.40833 0.0264139 -0.0301593 2.0028
40.43 0.446573 0.0212532 -0.0298451 2.00189
40.435 0.483955 0.0225995 -0.0298451 2.01151
40.44 0.465697 0.0178694 -0.029531 2.01577
40.445 0.449307 0.0176606 -0.0292168 2.01888
40.45 0.41927 0.0158312 -0.0289027 2.02114
40.455 0.407683 0.0170085 -0.0285885 2.02279
40.46 0.30937 0.00745587 -0.0282743 2.02399
40.465 0.238373 0.0074965 -0.0279602 2.01458
40.47 0.201262 0.00916709 -0.0279602 2.01047
40.475 0.213534 0.0132105 -0.027646 2.00747
40.48 0.262829 0.0173329 -0.0273319 2.0053
40.485 0.2894 0.0164289 -0.0273319 2.01399
40.49 0.298471 0.0152629 -0.0270177 2.01758
40.495 0.311532 0.0158969 -0.0267035 2.02019
40.5 0.28513 0.0122391 -0.0267035 2.03239
40.505 0.331397 0.0191323 -0.0263894 2.02823
40.51 0.345702 0.0170144 -0.0260752 2.02796
40.515 0.384236 0.0201662 -0.0260752 2.02775
40.52 0.361339 0.0145791 -0.0257611 2.01732
40.525 0.315974 0.0115711 -0.0254469 2.01247
40.53 0.279051 0.0113009 -0.0254469 2.00893
40.535 0.359148 0.0225742 -0.0251327 2.00635
40.54 0.425031 0.0232936 -0.0248186 2.00448
40.545 0.438126 0.0197867 -0.0245044 2.0134
40.55 0.413938 0.0163676 -0.0245044 2.01715
40.555 0.409847 0.0178535 -0.0241903 2.01988
40.56 0.401654 0.0175242 -0.0238761 2.03216
40.565 0.382355 0.0158786 -0.0235619 2.02807
40.57 0.347632 0.0137267 -0.0232478 2.02784
40.575 0.348149 0.0164768 -0.0229336 2.02766
40.58 0.309236 0.012072 -0.0226195 2.01726
40.585 0.29534 0.0136108 -0.0223053 2.01242
40.59 0.268602 0.0117637 -0.0219911 2.0089
40.595 0.325601 0.0197672 -0.021677 2.00633
40.6 0.369733 0.020131 -0.0213628 2.01475
40.605 0.35054 0.0147473 -0.0213628 2.01813
40.61 0.345432 0.015661 -0.0210487 2.0206
40.615 0.360267 0.0178085 -0.0207345 2.03268
40.62 0.392523 0.0198171 -0.0204204 2.02845
40.625 0.369492 0.0148635 -0.0201062 2.02811
40.63 0.358528 0.0150915 -0.0194779 2.01758
40.635 0.287538 0.008416 -0.0191637 2.01266
40.64 0.301957 0.0153832 -0.0188496 2.00907
40.645 0.356224 0.0199076 -0.0185354 2.00645
40.65 0.372324 0.0171762 -0.0179071 2.00455
40.655 0.359341 0.0145122 -0.0175929 2.00316
40.66 0.250022 0.00392857 -0.0169646 2.01244
40.665 0.289383 0.0162138 -0.0166504 2.00616
40.67 0.277857 0.0118593 -0.0163363 2.00434
40.675 0.347673 0.0202476 -0.0160221 2.01329
40.68 0.373144 0.017171 -0.015708 2.00679
40.685 0.407311 0.0186681 -0.0150796 2.00479
40.69 0.370449 0.0121006 -0.0147655 2.00334
40.695 0.349471 0.0126981 -0.0144513 2.00228
40.7 0.380858 0.017296 -0.0141372 1.99123
40.705 0.399901 0.0168837 -0.013823 1.98591
40.71 0.34889 0.0100342 -0.0135088 1.98205
40.715 0.343087 0.013262 -0.0131947 1.97923
40.72 0.317282 0.0109286 -0.0128805 1.97718
40.725 0.321677 0.0135624 -0.0125664 1.98597
40.73 0.305668 0.0111887 -0.0119381 1.98963
40.735 0.32391 0.0142239 -0.0116239 1.99229
40.74 0.340544 0.0141879 -0.0113097 1.98395
40.745 0.355709 0.0143004 -0.0106814 1.98061
40.75 0.385812 0.0162001 -0.0103673 1.97819
40.755 0.428549 0.0182972 -0.0100531 1.97642
40.76 0.471175 0.0197275 -0.00942478 1.98542
40.765 0.477871 0.0166313 -0.00911062 1.97894
40.77 0.481432 0.0164693 -0.0084823 1.97697
40.775 0.416685 0.00974459 -0.00785398 1.98581
40.78 0.377533 0.010417 -0.00753982 1.98952
40.785 0.36669 0.0122188 -0.00722566 1.99221
40.79 0.33215 0.00882978 -0.00659734 1.98389
40.795 0.274089 0.00572457 -0.00628319 1.99086
40.8 0.27734 0.0102779 -0.00596903 1.99319
40.805 0.249459 0.00662404 -0.00565487 1.9846
40.81 0.267778 0.0109019 -0.00534071 1.99138
40.815 0.336888 0.0163601 -0.00471239 1.99356
40.82 0.385208 0.0160165 -0.00439823 1.99516
40.825 0.42645 0.0165708 -0.00408407 1.99632
40.83 0.417895 0.0124544 -0.00376991 1.99717
40.835 0.490613 0.0207499 -0.00345575 1.99779
40.84 0.522817 0.018391 -0.00282743 1.99824
40.845 0.504973 0.0140679 -0.00251327 1.99856
40.85 0.415521 0.00542489 -0.00188496 1.98852
40.855 0.322227 0.00264926 -0.0015708 1.98394
40.86 0.236569 0.000935796 -0.000942478 1.9909
40.865 0.18759 0.00205005 -0.000628319 1.99322
40.87 0.192246 0.00558306 0 1.98462
40.875 0.194559 0.00528671 0.000314159 1.9811
40.88 0.22044 0.00756324 0.000628319 1.97855
40.885 0.187708 0.0022912 0.000942478 1.98696
40.89 0.190751 0.00443426 0.00125664 1.98007
40.895 0.215603 0.00663306 0.0015708 1.97779
40.9 0.231901 0.00657155 0.00188496 1.98641
40.905 0.258346 0.0077787 0.00219911 1.98995
40.91 0.238108 0.00343115 0.00251327 1.99253
40.915 0.219785 0.00255168 0.00282743 1.98412
40.92 0.24696 0.00665558 0.00314159 1.98074
40.925 0.283891 0.00823048 0.00345575 1.97828
40.93 0.353428 0.0126509 0.00345575 1.97649
40.935 0.369329 0.0088822 0.00376991 1.97518
40.94 0.360318 0.00663855 0.00408407 1.97423
40.945 0.331176 0.00464631 0.00439823 1.98382
40.95 0.328045 0.00610693 0.00502655 1.98806
40.955 0.26268 -0.0010182 0.00534071 1.98086
40.96 0.247704 0.00235929 0.00565487 1.97837
40.965 0.228953 0.00173096 0.00596903 1.98683
40.97 0.213677 0.0010457 0.00596903 1.97997
40.975 0.197168 0.000361423 0.00628319 1.97772
40.98 0.178064 -0.000603364 0.00659734 1.97608
40.985 0.234712 0.00688738 0.0069115 1.98517
40.99 0.271058 0.00604074 0.00722566 1.98904
40.995 0.31747 0.00757217 0.00753982 1.98158
41 0.364697 0.00904653 0.00753982 1.97889
41.005 0.381661 0.00710125 0.00785398 1.97693
41.01 0.332876 0.000635695 0.00816814 1.9755
41.015 0.340764 0.00506815 0.0084823 1.97446
41.02 0.312666 0.00142034 0.00879646 1.97371
41.025 0.276397 9.72894e-05 0.00911062 1.98344
41.03 0.216662 -0.00412373 0.00942478 1.9775
41.035 0.133375 -0.00833279 0.00973894 1.97591
41.04 0.0938905 -0.00636892 0.0100531 1.97477
41.045 0.0765222 -0.00548797 0.0103673 1.97392
41.05 0.0694696 -0.00523692 0.0106814 1.97331
41.055 0.0987649 -0.00199352 0.0109956 1.97287
41.06 0.10814 -0.00357261 0.0113097 1.97254
41.065 0.22226 0.00780967 0.0113097 1.98259
41.07 0.288952 0.00575979 0.0116239 1.98717
41.075 0.366123 0.00818207 0.0119381 1.98021
41.08 0.376039 0.00330259 0.0122522 1.9779
41.085 0.349697 -0.000280935 0.0125664 1.9762
41.09 0.312309 -0.00210445 0.0125664 1.97498
41.095 0.178103 -0.0133626 0.0128805 1.97408
41.1 0.156271 -0.00562796 0.0131947 1.97343
41.105 0.103275 -0.00941841 0.0135088 1.98323
41.11 0.0193302 -0.0144669 0.0135088 1.98763
41.115 0.0283302 -0.00753146 0.0135088 1.98055
41.12 0.0377408 -0.00756356 0.013823 1.97814
41.125 0.0652007 -0.00537659 0.013823 1.98667
41.13 0.0867504 -0.0058727 0.0141372 1.97985
41.135 0.178367 0.00193474 0.0141372 1.97763
41.14 0.196644 -0.00341642 0.0144513 1.97601
41.145 0.198731 -0.00432959 0.0144513 1.98512
41.15 0.163282 -0.00882731 0.0147655 1.97872
41.155 0.170692 -0.00549489 0.0150796 1.97681
41.16 0.150159 -0.00828466 0.0150796 1.97542
41.165 0.0401235 -0.0182792 0.0150796 1.9744
41.17 0.0416403 -0.00989971 0.0150796 1.97366
41.175 0.0126595 -0.0132233 0.0150796 1.97312
41.18 0.0332571 -0.0092337 0.0153938 1.97273
41.185 0.0286773 -0.0111203 0.0150796 1.98272
41.19 0.0723508 -0.00665804 0.0150796 1.97698
41.195 0.0870456 -0.00857423 0.0150796 1.97554
41.2 0.123214 -0.00591175 0.0147655 1.97449
41.205 0.196638 -0.00141294 0.0147655 1.96344
41.21 0.1923 -0.00716264 0.0147655 1.96842
41.215 0.224075 -0.00365383 0.0147655 1.9693
41.22 0.175919 -0.0111 0.0147655 1.96995
41.225 0.160785 -0.00896093 0.0150796 1.9807
41.23 0.144585 -0.00966909 0.0150796 1.98579
41.235 0.121948 -0.0111092 0.0150796 1.97921
41.24 0.120783 -0.00954216 0.0150796 1.97716
41.245 0.094933 -0.0120523 0.0150796 1.98596
41.25 0.0717511 -0.0128754 0.0150796 1.97933
41.255 0.0992997 -0.00832096 0.0150796 1.97725
41.26 0.11933 -0.00846429 0.0150796 1.97574
41.265 0.08651 -0.0133284 0.0150796 1.98492
41.27 0.064139 -0.0135264 0.0150796 1.97858
41.275 0.100737 -0.00793608 0.0147655 1.9767
41.28 0.0621722 -0.0148761 0.0147655 1.97534
41.285 0.0633882 -0.0119458 0.0147655 1.97434
41.29 0.0621434 -0.012313 0.0147655 1.97362
41.295 0.138163 -0.00444562 0.0147655 1.97309
41.3 0.145274 -0.00937836 0.0147655 1.98299
41.305 0.116791 -0.0132356 0.0147655 1.97717
41.31 0.163187 -0.00625143 0.0147655 1.97568
41.315 0.157161 -0.0104847 0.0147655 1.97459
41.32 0.214978 -0.00431114 0.0147655 1.96351
41.325 0.199912 -0.0102274 0.0147655 1.95819
41.33 0.162178 -0.0127652 0.0147655 1.9646
41.335 0.1183 -0.0145778 0.0147655 1.96651
41.34 0.0785935 -0.0154591 0.0147655 1.96792
41.345 0.121127 -0.00814519 0.0147655 1.96893
41.35 0.0473144 -0.0191445 0.0147655 1.96968
41.355 0.0461526 -0.013793 0.0147655 1.97022
41.36 -0.0409697 -0.0230077 0.0147655 1.96033
41.365 -0.0162453 -0.0139103 0.0147655 1.96615
41.37 -0.0187985 -0.016273 0.0147655 1.96765
41.375 0.0958488 -0.00436667 0.0147655 1.96874
41.38 0.0795913 -0.0148824 0.0147655 1.96954
41.385 0.0718428 -0.0145604 0.0147655 1.97012
41.39 0.15059 -0.00589723 0.0147655 1.97054
41.395 0.0109095 -0.0264766 0.0147655 1.97085
41.4 0.0968411 -0.00689711 0.0144513 1.97107
41.405 -0.000450879 -0.023665 0.0144513 1.97123
41.41 0.000702024 -0.0162986 0.0144513 1.97135
41.415 0.0237371 -0.0140796 0.0144513 1.98172
41.42 -0.066129 -0.0254652 0.0144513 1.97625
41.425 0.0480741 -0.00672701 0.0141372 1.97501
41.43 0.0148171 -0.0191177 0.0141372 1.96382
41.435 0.137329 -0.00405067 0.0141372 1.95841
41.44 0.099432 -0.0171996 0.0141372 1.96476
41.445 0.0939788 -0.0150005 0.0141372 1.96663
41.45 0.185412 -0.00517087 0.0141372 1.968
41.455 0.100798 -0.0209208 0.0141372 1.969
41.46 0.149606 -0.00947887 0.0141372 1.96973
41.465 0.12893 -0.0153796 0.0141372 1.97025
41.47 0.140055 -0.0128439 0.0141372 1.96035
41.475 0.129635 -0.0146246 0.0141372 1.96617
41.48 0.102741 -0.0167143 0.0141372 1.96767
41.485 0.142407 -0.0106198 0.0141372 1.96875
41.49 0.0915844 -0.0190885 0.0141372 1.95926
41.495 0.122709 -0.0119073 0.0141372 1.96537
41.5 0.0572804 -0.021149 0.0141372 1.96709
41.505 0.0666219 -0.0153139 0.0141372 1.96833
41.51 -0.00025773 -0.0231464 0.0141372 1.95895
41.515 -0.0709303 -0.0252949 0.013823 1.96515
41.52 -0.0414932 -0.0171059 0.013823 1.96692
41.525 -0.0624883 -0.0217041 0.013823 1.9785
41.53 -0.00787395 -0.0145985 0.013823 1.98419
41.535 -0.00777832 -0.018952 0.013823 1.97804
41.54 0.0623905 -0.0117906 0.013823 1.97631
41.545 0.090641 -0.0143113 0.013823 1.97505
41.55 0.107733 -0.014758 0.013823 1.97414
41.555 0.136983 -0.0132258 0.0141372 1.97346
41.56 0.0846284 -0.0209373 0.0141372 1.97298
41.565 0.073617 -0.0180741 0.0141372 1.98291
41.57 -0.0101537 -0.0261578 0.0141372 1.97711
41.575 -0.0508296 -0.0239536 0.013823 1.97563
41.58 -0.0882983 -0.02493 0.013823 1.97455
41.585 -0.174075 -0.0312146 0.013823 1.97377
41.59 -0.11182 -0.0183034 0.0135088 1.97319
41.595 -0.0259393 -0.0141885 0.0131947 1.97278
41.6 0.077658 -0.0101135 0.0131947 1.97247
41.605 0.146251 -0.0107077 0.0128805 1.98254
41.61 0.216337 -0.00873097 0.0128805 1.97684
41.615 0.213218 -0.014346 0.0128805 1.97543
41.62 0.162151 -0.019218 0.0125664 1.97441
41.625 0.120503 -0.0197292 0.0125664 1.96337
41.63 0.0521871 -0.0235619 0.0125664 1.96837
41.635 0.00665468 -0.0230449 0.0122522 1.96926
41.64 -0.0822899 -0.0289476 0.0122522 1.96991
41.645 -0.183429 -0.0328859 0.0122522 1.97039
41.65 -0.168966 -0.0237987 0.0119381 1.97073
41.655 -0.156127 -0.0238335 0.0119381 1.97098
41.66 -0.0529968 -0.0141018 0.0116239 1.96088
41.665 -0.00531226 -0.0172865 0.0116239 1.96655
41.67 0.0874844 -0.0113655 0.0116239 1.96794
41.675 0.099766 -0.0171848 0.0116239 1.96895
41.68 0.127653 -0.0152142 0.0116239 1.97998
41.685 0.11917 -0.018263 0.0116239 1.97498
41.69 0.00116768 -0.0299112 0.0116239 1.97408
41.695 -0.0133613 -0.0225151 0.0116239 1.97343
41.7 -0.131975 -0.033756 0.0116239 1.96266
41.705 -0.143752 -0.0261504 0.0113097 1.96786
41.71 -0.116975 -0.0226606 0.0113097 1.96889
41.715 -0.141062 -0.0274048 0.0113097 1.96965
41.72 -0.0743648 -0.0186983 0.0109956 1.9702
41.725 -0.0968179 -0.0261203 0.0106814 1.9706
41.73 0.00249264 -0.0142568 0.0106814 1.97089
41.735 0.0308031 -0.0187455 0.0103673 1.96082
41.74 0.0393373 -0.0200269 0.0100531 1.96651
41.745 0.0804062 -0.0164441 0.0100531 1.96791
41.75 -0.00705859 -0.02852 0.00973894 1.96893
41.755 -0.000339776 -0.0211015 0.00942478 1.96968
41.76 -0.0270234 -0.0244778 0.00942478 1.97022
41.765 -0.0629334 -0.0262904 0.00942478 1.97061
41.77 -0.0776266 -0.0250688 0.00942478 1.96061
41.775 -0.0979474 -0.0262417 0.00942478 1.95608
41.78 -0.0365342 -0.0185237 0.00911062 1.96306
41.785 -0.0221516 -0.0217446 0.00911062 1.9654
41.79 0.0274012 -0.0176323 0.00879646 1.9671
41.795 0.0340109 -0.0207666 0.00879646 1.96834
41.8 0.0375625 -0.0209479 0.00879646 1.96924
41.805 0.00511956 -0.0243676 0.0084823 1.95962
41.81 -0.0249666 -0.0249506 0.00816814 1.95535
41.815 -0.0140205 -0.0217679 0.00816814 1.96253
41.82 -0.0649926 -0.0277694 0.00785398 1.96501
41.825 -0.102931 -0.0279649 0.00785398 1.96682
41.83 -0.107394 -0.0255466 0.00753982 1.96814
41.835 -0.164936 -0.0311913 0.00722566 1.9691
41.84 -0.12727 -0.0229467 0.0069115 1.96979
41.845 -0.0567679 -0.0185043 0.00659734 1.97031
41.85 0.041737 -0.0135895 0.00628319 1.97067
41.855 0.0845106 -0.0166779 0.00628319 1.97095
41.86 0.114155 -0.0166891 0.00596903 1.97114
41.865 0.113086 -0.0188701 0.00565487 1.97129
41.87 0.106528 -0.0192815 0.00534071 1.97139
41.875 0.0860958 -0.0207249 0.00502655 1.97147
41.88 -0.0102001 -0.0288765 0.00471239 1.96124
41.885 -0.0491292 -0.0255123 0.00439823 1.95653
41.89 -0.124871 -0.0305391 0.00408407 1.96339
41.895 -0.127307 -0.0250085 0.00376991 1.96564
41.9 -0.140113 -0.0264255 0.00345575 1.97756
41.905 -0.120489 -0.0230833 0.00314159 1.97322
41.91 -0.0727288 -0.0196951 0.00282743 1.9728
41.915 -0.0066787 -0.0162736 0.00219911 1.97249
41.92 0.0151239 -0.0187624 0.00188496 1.96198
41.925 0.0602541 -0.0158847 0.0015708 1.96736
41.93 0.0884693 -0.0161736 0.00125664 1.96853
41.935 0.13323 -0.0134908 0.000942478 1.96938
41.94 0.108549 -0.0191225 0.000628319 1.95972
41.945 0.0882607 -0.0193279 0.000314159 1.96571
41.95 0.0699858 -0.0194688 0 1.96733
41.955 0.0189303 -0.0230442 -0.000314159 1.95822
41.96 -0.0477341 -0.0261958 -0.000628319 1.96462
41.965 -0.120016 -0.028523 -0.000942478 1.96654
41.97 -0.156772 -0.0268478 -0.00125664 1.96793
41.975 -0.208798 -0.0294886 -0.0015708 1.96895
41.98 -0.211212 -0.0258518 -0.00188496 1.96968
41.985 -0.253727 -0.0300049 -0.00251327 1.97023
41.99 -0.236991 -0.024714 -0.00282743 1.96033
41.995 -0.196614 -0.0218823 -0.00345575 1.95587
42 -0.103869 -0.0156511 -0.00408407 1.96291
42.005 -0.0642661 -0.0184168 -0.00439823 1.96529
42.01 0.0554807 -0.00848685 -0.00502655 1.95673
42.015 0.147906 -0.00821594 -0.00534071 1.96354
42.02 0.158953 -0.0135863 -0.00596903 1.96574
42.025 0.156159 -0.0142511 -0.00628319 1.95707
42.03 0.154853 -0.0139942 -0.00659734 1.95349
42.035 0.136437 -0.015755 -0.0069115 1.96118
42.04 0.0933732 -0.0183702 -0.00753982 1.96402
42.045 0.0288747 -0.0215961 -0.00785398 1.9661
42.05 -0.0507255 -0.0248186 -0.00816814 1.96762
42.055 -0.158465 -0.0297273 -0.00879646 1.96873
42.06 -0.185538 -0.0242017 -0.00942478 1.96953
42.065 -0.169054 -0.0198846 -0.0100531 1.95983
42.07 -0.158953 -0.020685 -0.0103673 1.9658
42.075 -0.0982731 -0.0148799 -0.0109956 1.96739
42.08 -0.0251889 -0.0117022 -0.0116239 1.96856
42.085 0.0549146 -0.00867648 -0.0122522 1.96941
42.09 0.105779 -0.00915739 -0.0128805 1.97003
42.095 0.10665 -0.0127244 -0.0131947 1.97048
42.1 0.119325 -0.0110975 -0.013823 1.97081
42.105 0.077787 -0.016157 -0.0141372 1.97105
42.11 0.0226366 -0.0185352 -0.0144513 1.97122
42.115 -0.0365286 -0.0201838 -0.0150796 1.97135
42.12 -0.0677324 -0.019239 -0.0153938 1.98173
42.125 -0.132161 -0.0234213 -0.015708 1.98654
42.13 -0.152421 -0.0200964 -0.0160221 1.97976
42.135 -0.0700398 -0.010088 -0.0163363 1.97757
42.14 -0.0164146 -0.0105859 -0.0169646 1.97597
42.145 0.06111 -0.00649448 -0.0172788 1.9748
42.15 0.0828603 -0.00997383 -0.0175929 1.97395
42.155 0.107383 -0.00887804 -0.0179071 1.97333
42.16 0.132318 -0.00809607 -0.0185354 1.98317
42.165 0.117335 -0.0112171 -0.0188496 1.98759
42.17 0.0760196 -0.013803 -0.0191637 1.98052
42.175 -0.00321937 -0.0186563 -0.019792 1.97812
42.18 -0.0338408 -0.0160777 -0.0201062 1.98665
42.185 -0.0562727 -0.0152501 -0.0207345 1.97984
42.19 -0.0487132 -0.0127885 -0.0210487 1.97762
42.195 0.0286643 -0.00505378 -0.021677 1.976
42.2 0.0100407 -0.0131814 -0.0219911 1.98512
42.205 0.0844769 -0.00366066 -0.0223053 1.989
42.21 0.0992934 -0.00722821 -0.0226195 1.98155
42.215 0.135967 -0.00443583 -0.0229336 1.97887
42.22 0.111858 -0.00967681 -0.0229336 1.97692
42.225 0.100221 -0.00917439 -0.0232478 1.98578
42.23 0.101738 -0.00758315 -0.0232478 1.9792
42.235 0.0605109 -0.0118926 -0.0235619 1.97716
42.24 0.0508633 -0.0100997 -0.0235619 1.98596
42.245 0.0230161 -0.0121415 -0.0235619 1.98961
42.25 0.0205183 -0.0100969 -0.0238761 1.99229
42.255 -0.0155116 -0.0131081 -0.0241903 1.98394
42.26 -0.0380516 -0.0126974 -0.0245044 1.98061
42.265 0.000560999 -0.00726213 -0.0248186 1.98847
42.27 -0.0134399 -0.0114206 -0.0251327 1.99145
42.275 0.0570515 -0.00222632 -0.0257611 1.98333
42.28 0.0708374 -0.0065501 -0.0260752 1.99045
42.285 0.0526213 -0.00919797 -0.0263894 1.99289
42.29 0.0266479 -0.0101762 -0.0270177 1.99467
42.295 -0.0015516 -0.0109731 -0.0273319 1.99597
42.3 0.0132728 -0.00665126 -0.027646 1.98663
42.305 0.0318564 -0.00626729 -0.0279602 1.99285
42.31 0.0573361 -0.00470922 -0.0282743 1.99464
42.315 0.019705 -0.0104402 -0.0285885 1.99594
42.32 0.0295257 -0.00589441 -0.0289027 1.98661
42.325 0.0205614 -0.00800725 -0.0292168 1.99284
42.33 0.0315173 -0.00586369 -0.029531 1.99463
42.335 0.0387622 -0.00576474 -0.0298451 1.99594
42.34 0.0124853 -0.00906721 -0.0298451 1.99689
42.345 0.023317 -0.00527578 -0.0301593 1.98729
42.35 0.0364377 -0.00532485 -0.0301593 1.99334
42.355 0.050372 -0.00454641 -0.0304734 1.995
42.36 0.0258789 -0.00754981 -0.0307876 1.98592
42.365 0.037201 -0.00444539 -0.0311018 1.98205
42.37 0.0428433 -0.00500151 -0.0314159 1.98952
42.375 0.0554061 -0.00378275 -0.0317301 1.99221
42.38 0.135053 0.00384613 -0.0320442 1.99418
42.385 0.101628 -0.00554062 -0.0323584 1.9956
42.39 0.105636 -0.00228898 -0.0326726 1.99665
42.395 0.0894243 -0.00405838 -0.0329867 1.9974
42.4 0.0264501 -0.00921467 -0.0333009 1.99796
42.405 0.0622442 -0.000229651 -0.0339292 1.99836
42.41 -0.0122323 -0.0101761 -0.0342434 1.98837
42.415 0.00479241 -0.00311637 -0.0345575 1.99412
42.42 0.0542371 0.00108315 -0.0348717 1.99557
42.425 0.0618565 -0.00172487 -0.0351858 1.99662
42.43 0.092255 0.0011055 -0.0355 1.99739
42.435 0.106644 0.000776765 -0.0355 1.98766
42.44 0.15848 0.00480608 -0.0358142 1.9936
42.445 0.123602 -0.00259967 -0.0358142 1.99519
42.45 0.141674 0.0022667 -0.0361283 1.99634
42.455 0.120245 -0.00167065 -0.0361283 2.00747
42.46 0.0912638 -0.00226793 -0.0364425 2.00255
42.465 0.074421 -0.00184356 -0.0364425 2.0017
42.47 0.0511881 -0.00293253 -0.0364425 2.00109
42.475 0.080975 0.00221493 -0.0367566 2.00064
42.48 0.0785587 -0.000281775 -0.0367566 2.00032
42.485 0.0816233 0.000717973 -0.0367566 1.98979
42.49 0.128204 0.00504942 -0.0370708 1.99516
42.495 0.182295 0.00755112 -0.037385 1.99632
42.5 0.238557 0.00946673 -0.037385 1.99717
42.505 0.24727 0.0060975 -0.0376991 2.00807
42.51 0.223203 0.00351111 -0.0376991 2.00298
42.515 0.21411 0.00467594 -0.0380133 2.00202
42.52 0.235921 0.00786503 -0.0380133 2.00132
42.525 0.179141 0.000371309 -0.0380133 2.00081
42.53 0.145262 0.00115973 -0.0383274 2.01073
42.535 0.112001 0.000477396 -0.0383274 2.0152
42.54 0.137769 0.00626061 -0.0383274 2.00818
42.545 0.16938 0.00759558 -0.0383274 2.0058
42.55 0.164668 0.00476762 -0.0383274 2.00408
42.555 0.220689 0.0109002 -0.0383274 2.0131
42.56 0.223642 0.0071533 -0.0383274 2.01694
42.565 0.20666 0.00543244 -0.0380133 2.00944
42.57 0.195294 0.00562901 -0.0380133 2.00673
42.575 0.178075 0.00483885 -0.0380133 2.00475
42.58 0.141089 0.00209279 -0.0380133 2.01359
42.585 0.105237 0.00135309 -0.0380133 2.01729
42.59 0.0495043 -0.00171423 -0.0380133 2.01999
42.595 0.054284 0.00354479 -0.0380133 2.01166
42.6 0.0840911 0.0062412 -0.0380133 2.00835
42.605 0.109005 0.00643234 -0.0383274 2.01621
42.61 0.18632 0.0129291 -0.0383274 2.0192
42.615 0.212226 0.00981791 -0.0383274 2.02137
42.62 0.210106 0.00801121 -0.0383274 2.01267
42.625 0.169824 0.00397902 -0.0383274 2.00908
42.63 0.168788 0.00713022 -0.0383274 2.00647
42.635 0.148152 0.00485522 -0.0383274 2.01484
42.64 0.121073 0.0037797 -0.0383274 2.0182
42.645 0.0755334 0.0014613 -0.0383274 2.01036
42.65 0.0753318 0.00509364 -0.0386416 2.0074
42.655 0.115633 0.00941072 -0.0386416 2.00524
42.66 0.171948 0.012023 -0.0386416 2.01395
42.665 0.224846 0.0137689 -0.0386416 2.00726
42.67 0.308 0.0185394 -0.0386416 2.00514
42.675 0.344227 0.01615 -0.0386416 2.00359
42.68 0.339483 0.0131085 -0.0386416 2.00247
42.685 0.350989 0.01496 -0.0386416 2.00164
42.69 0.354926 0.0146317 -0.0386416 2.01133
42.695 0.303748 0.0092182 -0.0386416 2.01564
42.7 0.228557 0.0056167 -0.0386416 2.0085
42.705 0.135286 0.00170417 -0.0386416 2.00604
42.71 0.106525 0.00598523 -0.0386416 2.00425
42.715 0.160126 0.0137037 -0.0386416 2.01323
42.72 0.192513 0.0132239 -0.0383274 2.00674
42.725 0.233474 0.0150902 -0.0383274 2.00476
42.73 0.263987 0.0152907 -0.0383274 2.00332
42.735 0.265682 0.0132838 -0.0383274 2.00226
42.74 0.303133 0.017009 -0.0380133 2.01178
42.745 0.330962 0.0173482 -0.0380133 2.01597
42.75 0.269022 0.00880231 -0.0376991 2.00874
42.755 0.199489 0.0064115 -0.0376991 2.00621
42.76 0.164812 0.00792203 -0.037385 2.01466
42.765 0.0904071 0.0028426 -0.037385 2.01807
42.77 0.106078 0.0105797 -0.037385 2.01027
42.775 0.0918908 0.00780986 -0.037385 2.00732
42.78 0.119532 0.0118595 -0.037385 2.00519
42.785 0.18403 0.0164202 -0.0370708 2.00362
42.79 0.207772 0.0140247 -0.0370708 2.00249
42.795 0.267318 0.0184671 -0.0370708 2.01195
42.8 0.293173 0.0168456 -0.0370708 2.01609
42.805 0.28657 0.0144573 -0.0370708 2.00882
42.81 0.274801 0.0138796 -0.0370708 2.00628
42.815 0.26829 0.0141721 -0.0370708 2.01471
42.82 0.290716 0.017296 -0.0370708 2.0181
42.825 0.253882 0.0119341 -0.0370708 2.01029
42.83 0.27424 0.0170889 -0.0370708 2.00735
42.835 0.263132 0.0143378 -0.0367566 2.0052
42.84 0.297659 0.0190141 -0.0367566 2.00364
42.845 0.296807 0.0163609 -0.0367566 2.01278
42.85 0.29491 0.016456 -0.0367566 2.0167
42.855 0.342788 0.0219487 -0.0367566 2.00927
42.86 0.323558 0.0162167 -0.0364425 2.0066
42.865 0.317941 0.0172876 -0.0364425 2.01494
42.87 0.295933 0.0154489 -0.0361283 2.01828
42.875 0.311382 0.0190395 -0.0361283 2.01041
42.88 0.30593 0.0174251 -0.0361283 2.00744
42.885 0.300743 0.0173206 -0.0358142 2.00526
42.89 0.307442 0.018606 -0.0358142 2.00369
42.895 0.328018 0.0204392 -0.0358142 2.00253
42.9 0.313175 0.0173049 -0.0355 2.01198
42.905 0.349892 0.0225697 -0.0355 2.01611
42.91 0.372816 0.0221803 -0.0351858 2.00884
42.915 0.338756 0.0170151 -0.0351858 2.00629
42.92 0.340381 0.0199092 -0.0348717 2.01472
42.925 0.344253 0.0204038 -0.0348717 2.01811
42.93 0.319789 0.0176676 -0.0348717 2.0103
42.935 0.329703 0.0206482 -0.0345575 2.00735
42.94 0.280699 0.0148647 -0.0345575 2.0052
42.945 0.266859 0.0173428 -0.0345575 2.00364
42.95 0.239003 0.0154277 -0.0342434 2.01279
42.955 0.267654 0.0207541 -0.0342434 2.0167
42.96 0.306077 0.0227165 -0.0342434 2.00927
42.965 0.327543 0.0219842 -0.0339292 2.0066
42.97 0.345929 0.0224946 -0.0339292 2.01494
42.975 0.36362 0.02298 -0.033615 2.01827
42.98 0.349225 0.0201989 -0.033615 2.01042
42.985 0.318029 0.0182165 -0.033615 2.00743
42.99 0.298379 0.0185582 -0.0333009 2.00527
42.995 0.283844 0.0186808 -0.0333009 2.00368
43 0.286353 0.0201932 -0.0333009 2.00253
43.005 0.347623 0.0264353 -0.0329867 2.00169
43.01 0.384757 0.0257804 -0.0329867 2.00108
43.015 0.389104 0.0234064 -0.0326726 2.00063
43.02 0.350808 0.0192304 -0.0326726 2.00031
43.025 0.352395 0.0223761 -0.0323584 2.00007
43.03 0.336327 0.0205665 -0.0320442 1.99991
43.035 0.319337 0.0201699 -0.0320442 1.99978
43.04 0.282598 0.0175835 -0.0317301 1.99969
43.045 0.285896 0.0207204 -0.0314159 1.99962
43.05 0.243384 0.0158665 -0.0311018 1.98929
43.055 0.244811 0.0194273 -0.0311018 1.99479
43.06 0.27805 0.0227189 -0.0307876 1.99606
43.065 0.333896 0.0261367 -0.0307876 1.99697
43.07 0.368955 0.0253747 -0.0304734 1.98736
43.075 0.416651 0.0278535 -0.0301593 1.99338
43.08 0.425533 0.0252953 -0.0301593 1.99503
43.085 0.453191 0.0275884 -0.0298451 1.99623
43.09 0.460599 0.0263184 -0.029531 1.9971
43.095 0.423836 0.0221152 -0.029531 1.99773
43.1 0.392899 0.0217469 -0.0292168 1.9982
43.105 0.333962 0.0179428 -0.0289027 1.99854
43.11 0.311147 0.0202221 -0.0289027 1.99878
43.115 0.332391 0.0241761 -0.0285885 1.99896
43.12 0.304087 0.0195076 -0.0282743 1.99909
43.125 0.316559 0.022953 -0.0279602 1.99919
43.13 0.322286 0.0225403 -0.027646 1.99926
43.135 0.36304 0.0263522 -0.0273319 1.9993
43.14 0.375976 0.0245508 -0.0270177 1.99934
43.145 0.409787 0.0271174 -0.0267035 1.99937
43.15 0.391596 0.0226059 -0.0263894 1.99939
43.155 0.438976 0.029026 -0.0260752 1.9994
43.16 0.408403 0.0220197 -0.0254469 1.99942
43.165 0.372222 0.0205869 -0.0251327 1.99942
43.17 0.287398 0.0142591 -0.0245044 1.99943
43.175 0.232687 0.014959 -0.0241903 1.99943
43.18 0.230833 0.0188587 -0.0238761 1.99944
43.185 0.198893 0.015487 -0.0235619 1.99943
43.19 0.231751 0.0211005 -0.0229336 1.99944
43.195 0.303624 0.0260052 -0.0226195 1.99944
43.2 0.395495 0.0300655 -0.0223053 1.99944
43.205 0.419551 0.0254983 -0.0219911 1.99944
43.21 0.443894 0.0263916 -0.0219911 1.99944
43.215 0.461021 0.0263607 -0.021677 1.99944
43.22 0.441396 0.0228623 -0.0210487 1.99944
43.225 0.401422 0.0201998 -0.0207345 1.99944
43.23 0.36116 0.0190444 -0.0204204 1.99944
43.235 0.306695 0.0163731 -0.0201062 1.99944
43.24 0.233381 0.0126026 -0.0194779 1.99944
43.245 0.223345 0.0170658 -0.0191637 1.99944
43.25 0.195698 0.0147608 -0.0188496 1.99944
43.255 0.211645 0.0180504 -0.0182212 1.98915
43.26 0.184204 0.013987 -0.0179071 1.9947
43.265 0.203636 0.0179087 -0.0175929 1.99598
43.27 0.23836 0.0198928 -0.0172788 1.99692
43.275 0.275968 0.0208728 -0.0166504 1.99761
43.28 0.330778 0.0236383 -0.0163363 1.99811
43.285 0.332068 0.0192124 -0.0160221 1.98818
43.29 0.324654 0.0185988 -0.015708 1.99399
43.295 0.284027 0.0147506 -0.0153938 1.99547
43.3 0.291729 0.0185938 -0.0150796 1.99655
43.305 0.290217 0.0174913 -0.0147655 1.98704
43.31 0.258405 0.0144699 -0.0144513 1.99316
43.315 0.254548 0.0163191 -0.0141372 1.99486
43.32 0.228208 0.0137066 -0.013823 1.99611
43.325 0.253382 0.0183975 -0.013823 1.99701
43.33 0.259033 0.0166794 -0.0135088 1.98739
43.335 0.332377 0.0241245 -0.0131947 1.9934
43.34 0.344956 0.0196691 -0.0128805 1.99505
43.345 0.341033 0.0182308 -0.0125664 1.99624
43.35 0.365188 0.0213353 -0.0122522 2.0074
43.355 0.310018 0.0131996 -0.0119381 2.00249
43.36 0.327727 0.0193519 -0.0116239 2.00166
43.365 0.349344 0.0201897 -0.0113097 2.00106
43.37 0.349761 0.0185034 -0.0109956 2.00062
43.375 0.359043 0.019065 -0.0106814 1.99001
43.38 0.297437 0.0122254 -0.0103673 1.99532
43.385 0.301462 0.017209 -0.0100531 1.99644
43.39 0.286797 0.0152477 -0.00973894 1.99726
43.395 0.262013 0.0132051 -0.00911062 1.98756
43.4 0.228159 0.0117805 -0.00879646 1.99354
43.405 0.208114 0.0120318 -0.0084823 1.99514
43.41 0.237869 0.0165284 -0.00816814 1.99631
43.415 0.257123 0.0160999 -0.00785398 1.99716
43.42 0.297016 0.0183713 -0.00753982 1.98749
43.425 0.33904 0.0199918 -0.00722566 1.99348
43.43 0.338133 0.0165024 -0.0069115 1.9951
43.435 0.335002 0.0158267 -0.00659734 1.98599
43.44 0.324686 0.0149963 -0.00628319 1.98211
43.445 0.300772 0.0131919 -0.00596903 1.97927
43.45 0.265844 0.0116131 -0.00565487 1.9875
43.455 0.286679 0.0162357 -0.00534071 1.99074
43.46 0.238639 0.00945289 -0.00502655 1.9931
43.465 0.223156 0.0110662 -0.00471239 1.98454
43.47 0.207868 0.0108433 -0.00439823 1.99133
43.475 0.208646 0.0118302 -0.00408407 1.99353
43.48 0.287496 0.0195627 -0.00376991 1.98485
43.485 0.298602 0.0145894 -0.00345575 1.98127
43.49 0.352336 0.0196236 -0.00314159 1.98895
43.495 0.38199 0.0184475 -0.00282743 1.9918
43.5 0.356896 0.0133241 -0.00219911 1.99388
43.505 0.305578 0.0097891 -0.00188496 1.99538
43.51 0.246272 0.00705533 -0.0015708 1.9862
43.515 0.231539 0.0103484 -0.00125664 1.99254
43.52 0.163948 0.00393933 -0.000628319 1.99442
43.525 0.166799 0.00893508 -0.000314159 1.98549
43.53 0.19037 0.011321 0 1.99203
43.535 0.182676 0.00840792 0.000314159 1.99404
43.54 0.168516 0.00729205 0.000628319 1.99551
43.545 0.184071 0.00979641 0.000942478 1.99657
43.55 0.184932 0.00834254 0.000942478 1.98707
43.555 0.245261 0.0144576 0.00125664 1.98289
43.56 0.295232 0.0152346 0.0015708 1.99013
43.565 0.274241 0.0089786 0.00188496 1.99266
43.57 0.317621 0.0150319 0.00219911 1.9945
43.575 0.258051 0.00531137 0.00251327 1.99584
43.58 0.244417 0.00848441 0.00251327 1.99682
43.585 0.238 0.00869907 0.00282743 1.99753
43.59 0.241806 0.00942921 0.00314159 1.99805
43.595 0.253566 0.00971084 0.00376991 1.98814
43.6 0.288454 0.0123978 0.00408407 1.98367
43.605 0.327268 0.0140371 0.00439823 1.9907
43.61 0.367562 0.0146764 0.00471239 1.98279
43.615 0.355855 0.0102322 0.00534071 1.97977
43.62 0.377518 0.0138055 0.00565487 1.98786
43.625 0.308142 0.00450285 0.00628319 1.991
43.63 0.251397 0.00375665 0.00659734 1.99329
43.635 0.200741 0.0022705 0.0069115 1.98468
43.64 0.152856 0.00105299 0.00722566 1.98115
43.645 0.141843 0.00367985 0.00753982 1.98886
43.65 0.148531 0.00486768 0.00785398 1.99173
43.655 0.21217 0.010443 0.00816814 1.98354
43.66 0.277128 0.0122111 0.0084823 1.98032
43.665 0.296959 0.00915651 0.00879646 1.97797
43.67 0.348965 0.0134339 0.00911062 1.98655
43.675 0.368678 0.011138 0.00973894 1.99005
43.68 0.339552 0.00603143 0.0100531 1.98231
43.685 0.304457 0.00463561 0.0103673 1.97942
43.69 0.259281 0.00295908 0.0106814 1.98761
43.695 0.167747 -0.00405185 0.0113097 1.98053
43.7 0.127632 -0.00132922 0.0116239 1.97813
43.705 0.068799 -0.00431385 0.0119381 1.98666
43.71 0.106078 0.00366757 0.0122522 1.99013
43.715 0.119016 0.0018661 0.0125664 1.99266
43.72 0.182138 0.00687807 0.0128805 1.98422
43.725 0.274596 0.0113816 0.0135088 1.98081
43.73 0.352906 0.0128131 0.013823 1.98862
43.735 0.393505 0.0108645 0.0141372 1.99155
43.74 0.410768 0.00900168 0.0144513 1.98341
43.745 0.425101 0.00926381 0.0147655 1.98022
43.75 0.361115 0.00202284 0.0150796 1.98819
43.755 0.26618 -0.00329233 0.0153938 1.99124
43.76 0.164964 -0.00736848 0.0160221 1.98318
43.765 0.0807445 -0.00835955 0.0160221 1.98006
43.77 0.0592555 -0.00444971 0.0163363 1.97778
43.775 0.0835835 -0.000211923 0.0166504 1.98641
43.78 0.129939 0.00196656 0.0169646 1.97966
43.785 0.136592 -0.000912191 0.0169646 1.97749
43.79 0.188791 0.00420017 0.0172788 1.9862
43.795 0.231356 0.00431418 0.0175929 1.98979
43.8 0.275594 0.00551029 0.0179071 1.99241
43.805 0.299628 0.00402698 0.0182212 1.98403
43.81 0.263315 -0.00163946 0.0185354 1.98068
43.815 0.197859 -0.0053928 0.0188496 1.98852
43.82 0.14903 -0.00641017 0.0194779 1.9812
43.825 0.144475 -0.00327753 0.019792 1.97861
43.83 0.159436 -0.00162126 0.0201062 1.97673
43.835 0.0995587 -0.00885078 0.0204204 1.98564
43.84 0.0643874 -0.00840061 0.0207345 1.98939
43.845 0.0911556 -0.00355584 0.0210487 1.98183
43.85 0.136049 -0.00114242 0.0213628 1.97907
43.855 0.185192 0.000869019 0.0213628 1.98735
43.86 0.204149 -0.00167079 0.021677 1.98035
43.865 0.264203 0.00305383 0.0219911 1.97799
43.87 0.197494 -0.00849712 0.0219911 1.97628
43.875 0.169635 -0.00589719 0.0219911 1.98531
43.88 0.17075 -0.00403351 0.0223053 1.98915
43.885 0.184374 -0.003324 0.0226195 1.98166
43.89 0.181315 -0.00465281 0.0226195 1.97894
43.895 0.193285 -0.00338576 0.0229336 1.97696
43.9 0.193034 -0.00437919 0.0229336 1.97552
43.905 0.196988 -0.00415627 0.0232478 1.97447
43.91 0.176475 -0.00680077 0.0235619 1.97371
43.915 0.196489 -0.00274231 0.0235619 1.98344
43.92 0.191084 -0.00565947 0.0238761 1.97749
43.925 0.140808 -0.0105654 0.0241903 1.97591
43.93 0.0944742 -0.0116422 0.0241903 1.97475
43.935 0.0608166 -0.0121234 0.0241903 1.96363
43.94 0.0091809 -0.0147406 0.0245044 1.96855
43.945 0.0245642 -0.00952407 0.0245044 1.9694
43.95 0.0080331 -0.0126078 0.0245044 1.97001
43.955 0.0185014 -0.0101396 0.0245044 1.98074
43.96 0.0732525 -0.00584537 0.0245044 1.97553
43.965 0.135216 -0.00363362 0.0245044 1.97448
43.97 0.214291 -0.000224596 0.0245044 1.97371
43.975 0.230252 -0.00462792 0.0245044 1.97315
43.98 0.209576 -0.00800931 0.0245044 1.97275
43.985 0.232693 -0.00405179 0.0245044 1.97246
43.99 0.249637 -0.00406272 0.0245044 1.97224
43.995 0.240116 -0.00634319 0.0245044 1.97209
44 0.21463 -0.0082748 0.0245044 1.97197
44.005 0.162889 -0.0117431 0.0245044 1.97189
44.01 0.0983513 -0.0149624 0.0245044 1.96155
44.015 0.105387 -0.00894875 0.0245044 1.96704
44.02 0.129662 -0.00718926 0.0245044 1.9683
44.025 0.0870458 -0.0135675 0.0245044 1.96922
44.03 0.0868062 -0.0101304 0.0245044 1.98017
44.035 0.0929265 -0.0100727 0.0245044 1.97512
44.04 0.111261 -0.00866303 0.0245044 1.97418
44.045 0.161749 -0.00491949 0.0245044 1.9735
44.05 0.147021 -0.0107602 0.0245044 1.96272
44.055 0.182839 -0.00550736 0.0245044 1.9679
44.06 0.173569 -0.00935289 0.0245044 1.96892
44.065 0.158742 -0.0106331 0.0245044 1.95938
44.07 0.165839 -0.0087291 0.0245044 1.95518
44.075 0.118259 -0.0138694 0.0245044 1.9624
44.08 0.102657 -0.0124423 0.0245044 1.95463
44.085 0.0521736 -0.0164708 0.0245044 1.95172
44.09 0.0237008 -0.0154515 0.0245044 1.95988
44.095 -0.0390955 -0.0199175 0.0241903 1.96309
44.1 -0.0803144 -0.0198761 0.0241903 1.95513
44.105 -0.0630362 -0.0149696 0.0241903 1.96237
44.11 -0.108801 -0.021173 0.0238761 1.96489
44.115 -0.0873354 -0.0159207 0.0238761 1.95645
44.12 -0.0446583 -0.0133689 0.0238761 1.95304
44.125 0.00337291 -0.0117197 0.0235619 1.95056
44.13 0.10787 -0.00478461 0.0235619 1.94875
44.135 0.224223 -0.000805992 0.0235619 1.94744
44.14 0.267945 -0.00507816 0.0235619 1.94647
44.145 0.310881 -0.0040768 0.0238761 1.94578
44.15 0.274839 -0.0109283 0.0238761 1.94527
44.155 0.228523 -0.0129214 0.0238761 1.9449
44.16 0.147907 -0.0172325 0.0235619 1.95491
44.165 0.0710297 -0.0195404 0.0235619 1.94918
44.17 -0.00703546 -0.0217971 0.0235619 1.94774
44.175 -0.0510173 -0.0202809 0.0232478 1.95699
44.18 -0.124604 -0.0248398 0.0229336 1.95069
44.185 -0.152267 -0.0223587 0.0229336 1.94885
44.19 -0.119931 -0.0170972 0.0226195 1.9475
44.195 -0.0365973 -0.0110967 0.0223053 1.94653
44.2 0.0693719 -0.00654423 0.0219911 1.94581
44.205 0.149996 -0.00620594 0.021677 1.9453
44.21 0.25816 -0.00122364 0.021677 1.94491
44.215 0.228658 -0.0123398 0.021677 1.94464
44.22 0.229907 -0.00997531 0.021677 1.94444
44.225 0.207669 -0.0120386 0.021677 1.95458
44.23 0.122468 -0.0192568 0.021677 1.95922
44.235 0.0460251 -0.0208099 0.021677 1.9626
44.24 -0.0795216 -0.0281769 0.021677 1.96506
44.245 -0.0914495 -0.0201323 0.021677 1.96686
44.25 -0.160767 -0.0267306 0.021677 1.95788
44.255 -0.116635 -0.0170352 0.0213628 1.95409
44.26 -0.0521558 -0.0137564 0.0210487 1.9616
44.265 0.00177687 -0.0132732 0.0210487 1.96434
44.27 0.0392457 -0.0134839 0.0207345 1.96633
44.275 0.0676012 -0.0133599 0.0204204 1.96778
44.28 0.115642 -0.0106307 0.0204204 1.96884
44.285 0.090182 -0.0168408 0.0201062 1.96961
44.29 0.0728363 -0.0167896 0.0201062 1.97017
44.295 0.00189689 -0.0227875 0.019792 1.97058
44.3 0.0163518 -0.015879 0.0194779 1.97087
44.305 -0.058264 -0.0246703 0.0191637 1.98138
44.31 -0.124166 -0.0261385 0.0191637 1.97599
44.315 -0.117318 -0.0204738 0.0188496 1.97482
44.32 -0.117225 -0.0210865 0.0185354 1.97396
44.325 -0.0810488 -0.0174208 0.0182212 1.96306
44.33 -0.105786 -0.0227975 0.0179071 1.95785
44.335 -0.0877408 -0.0193102 0.0179071 1.96435
44.34 -0.0568441 -0.0175211 0.0175929 1.96634
44.345 -0.0897012 -0.0233106 0.0172788 1.96779
44.35 -0.0729848 -0.019287 0.0172788 1.96884
44.355 -0.11574 -0.0250429 0.0169646 1.96961
44.36 -0.0720534 -0.0173174 0.0166504 1.97018
44.365 -0.0585345 -0.0192218 0.0163363 1.9603
44.37 -0.0782264 -0.0225446 0.0163363 1.96614
44.375 -0.0929567 -0.0224366 0.015708 1.96765
44.38 -0.124435 -0.0246308 0.0153938 1.96874
44.385 -0.0286625 -0.0123497 0.0150796 1.96954
44.39 -0.0241327 -0.0190028 0.0144513 1.97012
44.395 0.0132556 -0.015238 0.013823 1.96026
44.4 -0.0135646 -0.0208201 0.0135088 1.95582
44.405 -0.0213654 -0.019475 0.0128805 1.96288
44.41 -0.0381315 -0.0204182 0.0122522 1.96527
44.415 -0.0768788 -0.0230361 0.0119381 1.95673
44.42 -0.0441423 -0.0167237 0.0113097 1.96353
44.425 -0.062262 -0.02088 0.0106814 1.96575
44.43 -0.0637898 -0.0193764 0.0100531 1.95707
44.435 -0.0860358 -0.0215971 0.00973894 1.9535
44.44 -0.0370318 -0.0148714 0.00911062 1.96119
44.445 -0.0176389 -0.0164977 0.00879646 1.96404
44.45 -0.017211 -0.0177259 0.00816814 1.96611
44.455 -0.0162796 -0.0174811 0.00785398 1.95733
44.46 -0.00519648 -0.0165469 0.00753982 1.96397
44.465 0.0475312 -0.0116628 0.0069115 1.96606
44.47 0.00471693 -0.0200127 0.00659734 1.96759
44.475 -0.0286835 -0.0198484 0.00596903 1.95841
44.48 -0.033529 -0.017985 0.00565487 1.96476
44.485 -0.07814 -0.0220072 0.00502655 1.96663
44.49 -0.0438385 -0.0150904 0.00439823 1.97829
44.495 -0.113692 -0.0247755 0.00376991 1.98403
44.5 -0.111442 -0.0189723 0.00345575 1.97793
44.505 -0.108844 -0.0188229 0.00282743 1.97623
44.51 -0.0230024 -0.0101627 0.00219911 1.98528
44.515 0.0608092 -0.00747136 0.0015708 1.97884
44.52 0.0775862 -0.0120982 0.00125664 1.97689
44.525 0.10207 -0.0106822 0.000628319 1.98576
44.53 0.100533 -0.0123547 0 1.98948
44.535 0.126485 -0.00934207 -0.000314159 1.99218
44.54 0.0908118 -0.0147538 -0.000942478 1.99415
44.545 0.10246 -0.0104578 -0.00125664 1.9853
44.55 0.103605 -0.0113004 -0.0015708 1.99189
44.555 0.0609009 -0.0156718 -0.00188496 1.99394
44.56 0.0795248 -0.0101144 -0.00219911 1.98515
44.565 -0.00520825 -0.0203471 -0.00251327 1.98149
44.57 -0.00864062 -0.0143542 -0.00282743 1.98911
44.575 -0.00754404 -0.0138451 -0.00314159 1.99191
44.58 -0.0575941 -0.0191323 -0.00345575 1.99396
44.585 -0.0677981 -0.0160465 -0.00376991 1.98516
44.59 -0.0905083 -0.0175552 -0.00439823 1.9815
44.595 -0.0516758 -0.0120365 -0.00471239 1.98912
44.6 -0.0314832 -0.0125021 -0.00502655 1.98164
44.605 0.00385123 -0.0104026 -0.00534071 1.97893
44.61 0.123034 -0.000617722 -0.00596903 1.98725
44.615 0.0982845 -0.012099 -0.00628319 1.99056
44.62 0.135522 -0.00592204 -0.00659734 1.98268
44.625 0.162915 -0.00579922 -0.0069115 1.97969
44.63 0.165083 -0.00745969 -0.00722566 1.97752
44.635 0.127654 -0.0113112 -0.00753982 1.97593
44.64 0.119097 -0.00946266 -0.00753982 1.98506
44.645 0.0283511 -0.0178969 -0.00785398 1.97868
44.65 -0.00572997 -0.0145976 -0.00785398 1.97678
44.655 -0.0170108 -0.0133349 -0.00816814 1.98567
44.66 -0.0231455 -0.0127212 -0.0084823 1.97913
44.665 0.0715955 -0.00253701 -0.0084823 1.9771
44.67 0.0952534 -0.00701521 -0.00879646 1.96534
44.675 0.138471 -0.00441735 -0.00879646 1.95952
44.68 0.213195 -5.89561e-05 -0.00879646 1.96557
44.685 0.252752 -0.00147372 -0.00879646 1.96722
44.69 0.258543 -0.00358009 -0.00911062 1.96843
44.695 0.210619 -0.00891737 -0.00911062 1.9796
44.7 0.193024 -0.00698208 -0.00911062 1.98499
44.705 0.132347 -0.0118062 -0.00911062 1.97862
44.71 0.0776152 -0.0127007 -0.00942478 1.97674
44.715 0.0244771 -0.014234 -0.00942478 1.98565
44.72 -0.0621593 -0.019053 -0.00942478 1.97911
44.725 -0.0782919 -0.014123 -0.00973894 1.97709
44.73 -0.0186057 -0.00665566 -0.0100531 1.97562
44.735 0.0226497 -0.00701984 -0.0100531 1.97454
44.74 0.0592284 -0.00643447 -0.0103673 1.98405
44.745 0.0677999 -0.00830279 -0.0103673 1.98823
44.75 0.0842189 -0.00708524 -0.0106814 1.99128
44.755 0.152918 -0.00125721 -0.0106814 2.00378
44.76 0.167119 -0.00479024 -0.0106814 1.99986
44.765 0.14089 -0.00877106 -0.0106814 2.01003
44.77 0.12759 -0.00774114 -0.0109956 2.00441
44.775 0.057818 -0.0140969 -0.0109956 2.00306
44.78 0.0452499 -0.010036 -0.0109956 2.00208
44.785 0.133655 0.000245396 -0.0109956 2.00136
44.79 0.168191 -0.00291792 -0.0109956 2.00084
44.795 0.189469 -0.00316683 -0.0109956 1.99017
44.8 0.152685 -0.00874629 -0.0109956 1.99544
44.805 0.125048 -0.00872709 -0.0109956 1.99652
44.81 0.113621 -0.00760316 -0.0113097 1.99732
44.815 0.128219 -0.0051559 -0.0113097 1.99789
44.82 0.0720264 -0.0120202 -0.0116239 1.99831
44.825 -0.0242166 -0.0178453 -0.0116239 1.99862
44.83 -0.0285043 -0.0105646 -0.0119381 1.98856
44.835 -0.00742772 -0.00804692 -0.0122522 1.98397
44.84 0.0750705 -0.00113807 -0.0122522 1.98063
44.845 0.121423 -0.00236821 -0.0125664 1.96791
44.85 0.137102 -0.00432526 -0.0125664 1.9614
44.855 0.163887 -0.00281916 -0.0125664 1.96693
44.86 0.107843 -0.0104159 -0.0128805 1.96822
44.865 0.107739 -0.00627372 -0.0128805 1.97944
44.87 0.152557 -0.00150299 -0.0128805 1.98487
44.875 0.108473 -0.00936624 -0.0128805 1.97854
44.88 0.00939319 -0.0163424 -0.0128805 1.97668
44.885 -0.0223662 -0.0117623 -0.0131947 1.96503
44.89 -0.106969 -0.0185119 -0.0131947 1.96958
44.895 -0.0743974 -0.00877759 -0.0131947 1.97015
44.9 -0.011422 -0.00484309 -0.0131947 1.97056
44.905 0.0465436 -0.00369044 -0.0131947 1.97086
44.91 0.135456 0.00127082 -0.0135088 1.97109
44.915 0.131666 -0.00585194 -0.0135088 1.97124
44.92 0.141059 -0.00437989 -0.013823 1.97136
44.925 0.156994 -0.00351147 -0.013823 1.98173
44.93 0.192145 -0.000766556 -0.0141372 1.98654
44.935 0.224541 0.000145787 -0.0141372 1.97975
44.94 0.139951 -0.0112197 -0.0141372 1.98785
44.945 0.0588829 -0.0130041 -0.0144513 1.99099
44.95 -0.00197533 -0.0130262 -0.0147655 1.99329
44.955 0.00416932 -0.00736211 -0.0150796 1.98467
44.96 0.0226277 -0.00605321 -0.0150796 1.98114
44.965 0.0452603 -0.00500545 -0.0153938 1.97857
44.97 0.0463063 -0.0068752 -0.0153938 1.98699
44.975 0.0560297 -0.00551885 -0.015708 1.98008
44.98 0.0735319 -0.00473015 -0.015708 1.98809
44.985 0.150988 0.00229739 -0.0160221 1.99117
44.99 0.183479 -0.000169642 -0.0160221 1.99342
44.995 0.172584 -0.0035693 -0.0160221 1.98476
45 0.136518 -0.00647575 -0.0160221 1.98121
45.005 0.0625821 -0.0113816 -0.0160221 1.97862
45.01 0.0688347 -0.00507319 -0.0160221 1.97673
45.015 0.0689217 -0.00555251 -0.0160221 1.97536
45.02 0.0867066 -0.00355716 -0.0163363 1.97436
45.025 0.105851 -0.00291498 -0.0163363 1.97363
45.03 0.0429591 -0.0107458 -0.0166504 1.9731
45.035 0.0223863 -0.00795575 -0.0169646 1.97271
45.04 0.0873638 0.000489724 -0.0172788 1.97243
45.045 0.108502 -0.00208713 -0.0172788 1.96194
45.05 0.0707106 -0.00767683 -0.0175929 1.96733
45.055 0.121643 0.000695039 -0.0179071 1.9685
45.06 0.121043 -0.00287934 -0.0182212 1.95908
45.065 0.172086 0.00256129 -0.0185354 1.95496
45.07 0.221347 0.00398955 -0.0188496 1.95196
45.075 0.24451 0.00275745 -0.0188496 1.94977
45.08 0.234746 0.000290584 -0.0191637 1.94818
45.085 0.230859 0.000748045 -0.0191637 1.94701
45.09 0.198684 -0.00199009 -0.0194779 1.94617
45.095 0.189653 -0.000406344 -0.0194779 1.94555
45.1 0.120709 -0.00670066 -0.019792 1.95539
45.105 0.0700091 -0.00650933 -0.019792 1.94952
45.11 0.0599621 -0.00377986 -0.019792 1.948
45.115 0.0615855 -0.0027283 -0.0201062 1.94688
45.12 0.0876365 -2.90929e-05 -0.0201062 1.93579
45.125 0.120144 0.00109383 -0.0201062 1.94074
45.13 0.180833 0.00494916 -0.0201062 1.9416
45.135 0.168023 -0.00056296 -0.0204204 1.93194
45.14 0.14752 -0.00180471 -0.0204204 1.93793
45.145 0.187384 0.0040469 -0.0207345 1.93955
45.15 0.201752 0.00261108 -0.0207345 1.94073
45.155 0.212825 0.00275828 -0.0207345 1.94159
45.16 0.205433 0.00142392 -0.0210487 1.94222
45.165 0.133643 -0.00528372 -0.0210487 1.94268
45.17 0.103631 -0.00278237 -0.0213628 1.94301
45.175 0.0864935 -0.0021235 -0.021677 1.94325
45.18 0.102908 0.000837714 -0.021677 1.94343
45.185 0.0958882 -0.00110853 -0.021677 1.94356
45.19 0.0591814 -0.00418721 -0.0219911 1.94365
45.195 0.0281707 -0.00463607 -0.0219911 1.94372
45.2 0.0432405 -0.000659725 -0.0223053 1.94377
45.205 0.0809067 0.00202881 -0.0223053 1.9438
45.21 0.190826 0.0104568 -0.0223053 1.94383
45.215 0.242354 0.00746326 -0.0223053 1.95413
45.22 0.298962 0.00961543 -0.0223053 1.9589
45.225 0.28673 0.00431454 -0.0223053 1.95208
45.23 0.259136 0.00247579 -0.0223053 1.96015
45.235 0.28305 0.00720585 -0.0223053 1.96327
45.24 0.221074 -0.000795817 -0.0223053 1.95527
45.245 0.13456 -0.00492336 -0.0223053 1.95218
45.25 0.097485 -0.00215855 -0.0226195 1.96022
45.255 0.0282401 -0.00648332 -0.0226195 1.96333
45.26 0.0306959 -0.000877288 -0.0229336 1.9656
45.265 0.0662526 0.00257522 -0.0229336 1.96724
45.27 0.0993876 0.00361603 -0.0232478 1.95816
45.275 0.0993875 0.00119283 -0.0235619 1.95429
45.28 0.140708 0.00529507 -0.0235619 1.96175
45.285 0.198438 0.00840499 -0.0238761 1.96445
45.29 0.251255 0.00983475 -0.0241903 1.95612
45.295 0.271812 0.00796843 -0.0241903 1.96309
45.3 0.233622 0.00263038 -0.0241903 1.96542
45.305 0.252531 0.00768066 -0.0241903 1.95683
45.31 0.19136 3.47227e-05 -0.0241903 1.95332
45.315 0.130719 -0.00150575 -0.0241903 1.95076
45.32 0.122465 0.00224496 -0.0241903 1.9489
45.325 0.0972592 0.000135978 -0.0238761 1.94754
45.33 0.113088 0.00365295 -0.0238761 1.94656
45.335 0.123132 0.00349837 -0.0238761 1.94583
45.34 0.182335 0.00883107 -0.0238761 1.94531
45.345 0.156953 0.0016842 -0.0235619 1.94493
45.35 0.192243 0.00725659 -0.0235619 1.94465
45.355 0.199151 0.0053847 -0.0235619 1.94444
45.36 0.176228 0.00274886 -0.0238761 1.9443
45.365 0.171141 0.00390571 -0.0238761 1.95448
45.37 0.106251 -0.00217666 -0.0238761 1.94886
45.375 0.15095 0.00743045 -0.0241903 1.94751
45.38 0.0976033 -0.00137712 -0.0241903 1.94653
45.385 0.162511 0.00944812 -0.0245044 1.94582
45.39 0.129488 0.00122249 -0.0245044 1.9453
45.395 0.175618 0.00861265 -0.0248186 1.94492
45.4 0.210703 0.00879821 -0.0248186 1.94464
45.405 0.230799 0.00830674 -0.0248186 1.94444
45.41 0.253522 0.00922742 -0.0248186 1.9443
45.415 0.193487 0.00139913 -0.0248186 1.95447
45.42 0.184046 0.00498448 -0.0245044 1.94886
45.425 0.141717 0.00138151 -0.0245044 1.94751
45.43 0.129476 0.00321513 -0.0245044 1.95682
45.435 0.129794 0.00436528 -0.0245044 1.95056
45.44 0.124358 0.00360364 -0.0241903 1.94876
45.445 0.101242 0.00165308 -0.0241903 1.94744
45.45 0.0423508 -0.00283608 -0.0241903 1.95677
45.455 0.11939 0.00972374 -0.0241903 1.95052
45.46 0.137127 0.00568118 -0.0241903 1.94873
45.465 0.0952847 7.42247e-05 -0.0245044 1.9577
45.47 0.120531 0.00603569 -0.0245044 1.95121
45.475 0.123974 0.00460055 -0.0248186 1.94922
45.48 0.188082 0.0108331 -0.0248186 1.95807
45.485 0.176655 0.00493939 -0.0248186 1.96176
45.49 0.216798 0.0101946 -0.0251327 1.96445
45.495 0.204539 0.0059826 -0.0251327 1.96641
45.5 0.155181 0.00188323 -0.0251327 1.96784
45.505 0.166059 0.00693552 -0.0251327 1.95859
45.51 0.115472 0.000900767 -0.0251327 1.95461
45.515 0.146942 0.00784859 -0.0251327 1.96198
45.52 0.137147 0.00454151 -0.0251327 1.96462
45.525 0.123977 0.0042546 -0.0254469 1.95624
45.53 0.119154 0.00457874 -0.0254469 1.96318
45.535 0.0766885 0.000607862 -0.0254469 1.96548
45.54 0.132023 0.00971213 -0.0254469 1.95688
45.545 0.113573 0.00342095 -0.0251327 1.95335
45.55 0.174863 0.0110057 -0.0251327 1.96108
45.555 0.162628 0.00522243 -0.0251327 1.96395
45.56 0.171893 0.00729474 -0.0251327 1.95576
45.565 0.211483 0.0105897 -0.0251327 1.96283
45.57 0.16107 0.00250317 -0.0251327 1.96523
45.575 0.240193 0.014832 -0.0254469 1.95669
45.58 0.162664 0.000911947 -0.0254469 1.95322
45.585 0.166745 0.00724592 -0.0254469 1.95069
45.59 0.146358 0.00477153 -0.0254469 1.95913
45.595 0.0956374 0.00129243 -0.0254469 1.95225
45.6 0.0853367 0.00385998 -0.0254469 1.96027
45.605 0.0563014 0.00167412 -0.0254469 1.96336
45.61 0.134443 0.0122492 -0.0257611 1.95534
45.615 0.107837 0.00355255 -0.0257611 1.95223
45.62 0.19032 0.0139391 -0.0257611 1.96026
45.625 0.245184 0.01352 -0.0257611 1.96335
45.63 0.29978 0.0151907 -0.0257611 1.95533
45.635 0.34281 0.0154631 -0.0254469 1.96251
45.64 0.290956 0.00705213 -0.0254469 1.965
45.645 0.333925 0.0156018 -0.0254469 1.95652
45.65 0.234949 0.00216516 -0.0251327 1.9531
45.655 0.192726 0.00535576 -0.0251327 1.96089
45.66 0.0933205 -0.00165785 -0.0251327 1.96382
45.665 0.0558698 0.00197553 -0.0248186 1.95566
45.67 0.0601934 0.00502897 -0.0248186 1.96276
45.675 0.034738 0.00207385 -0.0248186 1.96517
45.68 0.137231 0.0147005 -0.0248186 1.95666
45.685 0.151219 0.00833336 -0.0248186 1.95319
45.69 0.242456 0.0166523 -0.0248186 1.96096
45.695 0.258992 0.0116183 -0.0248186 1.96386
45.7 0.282118 0.0129013 -0.0248186 1.96599
45.705 0.336975 0.0169961 -0.0248186 1.96753
45.71 0.265957 0.00564718 -0.0248186 1.96865
45.715 0.274648 0.0120944 -0.0248186 1.96947
45.72 0.187796 0.00242445 -0.0245044 1.95979
45.725 0.190459 0.00932696 -0.0245044 1.96576
45.73 0.170767 0.00716473 -0.0245044 1.96737
45.735 0.170846 0.00872302 -0.0245044 1.96853
45.74 0.227322 0.0146384 -0.0245044 1.96938
45.745 0.241425 0.0117465 -0.0241903 1.97
45.75 0.313822 0.0182635 -0.0241903 1.96017
45.755 0.365218 0.0182104 -0.0241903 1.95575
45.76 0.392292 0.0172594 -0.0238761 1.96282
45.765 0.38696 0.0148658 -0.0238761 1.96522
45.77 0.381675 0.014793 -0.0235619 1.96698
45.775 0.37127 0.0141775 -0.0232478 1.96825
45.78 0.284366 0.00599087 -0.0229336 1.96918
45.785 0.238731 0.00799695 -0.0229336 1.96985
45.79 0.190637 0.00636159 -0.0226195 1.96006
45.795 0.131237 0.00395061 -0.0226195 1.95567
45.8 0.161578 0.0114365 -0.0223053 1.96277
45.805 0.22252 0.0154834 -0.0223053 1.96518
45.81 0.297526 0.0184546 -0.0219911 1.95666
45.815 0.323077 0.0155116 -0.021677 1.96348
45.82 0.326646 0.0140771 -0.021677 1.96571
45.825 0.350895 0.0163287 -0.0213628 1.96732
45.83 0.317472 0.0108855 -0.0210487 1.95822
45.835 0.306656 0.0123312 -0.0204204 1.96462
45.84 0.256036 0.00784335 -0.0201062 1.96654
45.845 0.219231 0.00791507 -0.019792 1.97821
45.85 0.180907 0.0065004 -0.0194779 1.97369
45.855 0.159662 0.00711746 -0.0191637 1.97314
45.86 0.209423 0.0139336 -0.0191637 1.97275
45.865 0.239031 0.0129924 -0.0188496 1.96217
45.87 0.342532 0.0215475 -0.0185354 1.9675
45.875 0.371978 0.0167144 -0.0182212 1.96863
45.88 0.399546 0.0173729 -0.0179071 1.96946
45.885 0.454702 0.0213529 -0.0175929 1.98034
45.89 0.501561 0.0217662 -0.0172788 1.97524
45.895 0.470355 0.0151496 -0.0169646 1.97427
45.9 0.375098 0.00772044 -0.0166504 1.97357
45.905 0.261142 0.00315417 -0.0163363 1.97305
45.91 0.194808 0.0048734 -0.0160221 1.97268
45.915 0.190766 0.00938072 -0.015708 1.9724
45.92 0.158062 0.00614462 -0.0153938 1.97221
45.925 0.14309 0.00706049 -0.0150796 1.98235
45.93 0.110804 0.00447459 -0.0147655 1.9767
45.935 0.151569 0.011028 -0.0144513 1.97533
45.94 0.211104 0.0139417 -0.0141372 1.97434
45.945 0.227048 0.0109314 -0.013823 1.97362
45.95 0.288161 0.015972 -0.0135088 1.97309
45.955 0.240294 0.00626695 -0.0131947 1.9727
45.96 0.223641 0.00828618 -0.0128805 1.98271
45.965 0.138901 0.000363617 -0.0125664 1.97696
45.97 0.139213 0.00675756 -0.0122522 1.97553
45.975 0.197165 0.0125915 -0.0119381 1.97448
45.98 0.165497 0.00457984 -0.0116239 1.96343
45.985 0.166622 0.00729993 -0.0116239 1.96841
45.99 0.163199 0.00666299 -0.0113097 1.9693
45.995 0.228352 0.0136936 -0.0113097 1.96994
46 0.288134 0.0150631 -0.0109956 1.9807
46.005 0.299553 0.0113631 -0.0106814 1.9755
46.01 0.318745 0.0126641 -0.0106814 1.97446
46.015 0.292894 0.00823112 -0.0103673 1.96342
46.02 0.284673 0.00952222 -0.0103673 1.95812
46.025 0.256337 0.00738517 -0.0100531 1.96454
46.03 0.241424 0.00783463 -0.00973894 1.96648
46.035 0.26626 0.0113651 -0.00973894 1.9576
46.04 0.265656 0.0096296 -0.00942478 1.96417
46.045 0.295394 0.0127693 -0.00942478 1.96621
46.05 0.357098 0.0168573 -0.00911062 1.96769
46.055 0.38234 0.014451 -0.00879646 1.95848
46.06 0.382067 0.0129315 -0.0084823 1.96481
46.065 0.349061 0.00944482 -0.00816814 1.96667
46.07 0.310085 0.00757475 -0.00785398 1.95775
46.075 0.269289 0.00664993 -0.00753982 1.96427
46.08 0.312668 0.0140674 -0.00722566 1.96628
46.085 0.265008 0.00576536 -0.0069115 1.96774
46.09 0.23545 0.00609632 -0.0069115 1.95853
46.095 0.234167 0.00816575 -0.00659734 1.95455
46.1 0.20757 0.00566053 -0.00628319 1.96195
46.105 0.259526 0.0129898 -0.00628319 1.96459
46.11 0.297308 0.0128607 -0.00596903 1.96651
46.115 0.324525 0.0127406 -0.00565487 1.96791
46.12 0.349708 0.0133907 -0.00565487 1.96893
46.125 0.323181 0.00832871 -0.00534071 1.95939
46.13 0.355827 0.0141296 -0.00502655 1.96547
46.135 0.349543 0.0110259 -0.00502655 1.96715
46.14 0.351029 0.0116188 -0.00471239 1.96838
46.145 0.270621 0.00310995 -0.00439823 1.96927
46.15 0.26254 0.00844054 -0.00439823 1.96993
46.155 0.227944 0.00534057 -0.00408407 1.9704
46.16 0.230015 0.00820155 -0.00408407 1.97075
46.165 0.268678 0.0119181 -0.00376991 1.971
46.17 0.270164 0.00916682 -0.00376991 1.97118
46.175 0.295066 0.0115303 -0.00345575 1.97131
46.18 0.27743 0.00785965 -0.00345575 1.97141
46.185 0.281502 0.00951888 -0.00314159 1.97148
46.19 0.320176 0.0132823 -0.00314159 1.97153
46.195 0.334994 0.0117983 -0.00282743 1.97157
46.2 0.336943 0.010412 -0.00251327 1.96131
46.205 0.321376 0.00908935 -0.00219911 1.96687
46.21 0.333415 0.0114916 -0.00219911 1.96817
46.215 0.353755 0.012618 -0.00188496 1.96912
46.22 0.290667 0.00445665 -0.0015708 1.96981
46.225 0.249319 0.00501077 -0.0015708 1.97031
46.23 0.19555 0.00242367 -0.00125664 1.97067
46.235 0.213957 0.00806936 -0.00125664 1.96065
46.24 0.179596 0.00319262 -0.00125664 1.9561
46.245 0.143573 0.00216663 -0.000942478 1.96307
46.25 0.115564 0.00182858 -0.000942478 1.9654
46.255 0.0829537 0.000235384 -0.000942478 1.95681
46.26 0.0744566 0.00199066 -0.000942478 1.96359
46.265 0.0768552 0.00253207 -0.000628319 1.96578
46.27 0.161191 0.0107278 -0.000628319 1.95709
46.275 0.217784 0.0101524 -0.000628319 1.9535
46.28 0.279856 0.012401 -0.000314159 1.96118
46.285 0.356894 0.0156551 -0.000314159 1.96402
46.29 0.383767 0.0125518 0 1.9661
46.295 0.445957 0.0170976 0 1.96761
46.3 0.467006 0.0145791 0.000314159 1.96871
46.305 0.438557 0.0100605 0.000628319 1.96951
46.31 0.380411 0.00591925 0.000628319 1.95981
46.315 0.308059 0.00336123 0.000942478 1.96578
46.32 0.214652 -0.000908455 0.000942478 1.96738
46.325 0.111576 -0.00454201 0.000942478 1.96855
46.33 0.101991 0.00218935 0.000942478 1.96939
46.335 0.0987886 0.00230511 0.00125664 1.97001
46.34 0.140282 0.00673826 0.00125664 1.97046
46.345 0.219189 0.0113831 0.00125664 1.96051
46.35 0.302581 0.0143941 0.00125664 1.96628
46.355 0.413058 0.0193382 0.0015708 1.96775
46.36 0.437044 0.013414 0.00188496 1.96881
46.365 0.433307 0.0118362 0.00188496 1.97988
46.37 0.418693 0.00998793 0.00219911 1.9749
46.375 0.338568 0.00272102 0.00282743 1.97403
46.38 0.311213 0.00591317 0.00314159 1.97338
46.385 0.211305 -0.00287178 0.00345575 1.96264
46.39 0.154968 -0.000822173 0.00376991 1.96783
46.395 0.0905631 -0.00357068 0.00408407 1.96888
46.4 0.0788448 -2.75348e-05 0.00408407 1.96963
46.405 0.135888 0.00648885 0.00439823 1.97019
46.41 0.144475 0.00277822 0.00471239 1.97059
46.415 0.209272 0.0086164 0.00502655 1.97089
46.42 0.305352 0.0130889 0.00534071 1.96081
46.425 0.343156 0.010238 0.00534071 1.96651
46.43 0.313323 0.00407993 0.00565487 1.96791
46.435 0.299098 0.00476785 0.00596903 1.96893
46.44 0.263025 0.00214071 0.00596903 1.96967
46.445 0.211573 -0.000609801 0.00628319 1.97022
46.45 0.141121 -0.00420877 0.00659734 1.97061
46.455 0.083376 -0.00521893 0.00659734 1.96062
46.46 0.0766936 -0.00172005 0.0069115 1.95607
46.465 0.100762 0.00139344 0.0069115 1.96306
46.47 0.127317 0.00168663 0.00722566 1.95511
46.475 0.111384 -0.00214686 0.00753982 1.95207
46.48 0.15422 0.00364055 0.00753982 1.96013
46.485 0.232603 0.00788073 0.00785398 1.95298
46.49 0.222531 0.000983366 0.00785398 1.95052
46.495 0.223574 0.00167927 0.00816814 1.94872
46.5 0.208198 0.000174501 0.0084823 1.9577
46.505 0.205664 0.000950234 0.0084823 1.96149
46.51 0.187411 -0.00125577 0.00879646 1.95397
46.515 0.134662 -0.00512734 0.00911062 1.96152
46.52 0.13381 -0.00140157 0.00911062 1.96428
46.525 0.0862651 -0.00676958 0.00942478 1.956
46.53 0.10871 -0.000900327 0.00942478 1.95271
46.535 0.0706633 -0.00638535 0.00942478 1.96061
46.54 0.0517487 -0.0056791 0.00942478 1.96361
46.545 0.0921945 -0.000206932 0.00942478 1.9658
46.55 0.0634139 -0.00623128 0.00911062 1.96739
46.555 0.0811536 -0.0023441 0.00911062 1.96856
46.56 0.0765859 -0.00429663 0.00911062 1.9694
46.565 0.133371 0.00182515 0.00911062 1.97002
46.57 0.184407 0.00272541 0.00911062 1.97047
46.575 0.190795 -0.000535475 0.00911062 1.9708
46.58 0.19067 -0.000793871 0.00911062 1.98132
46.585 0.189838 -0.00124766 0.00911062 1.97595
46.59 0.166717 -0.00354945 0.00911062 1.97479
46.595 0.117186 -0.00699097 0.00911062 1.97395
46.6 0.0775547 -0.00742475 0.00911062 1.97333
46.605 0.0976622 -0.00258528 0.00942478 1.97288
46.61 0.0955657 -0.00444566 0.00942478 1.97255
46.615 0.108247 -0.00307237 0.00942478 1.97231
46.62 0.0713533 -0.00779589 0.00942478 1.98242
46.625 0.144175 0.00226543 0.00942478 1.97676
46.63 0.143171 -0.00343242 0.00942478 1.97538
46.635 0.205162 0.00278962 0.00942478 1.96409
46.64 0.203504 -0.00206161 0.00942478 1.9586
46.645 0.191219 -0.00296097 0.00942478 1.9649
46.65 0.180097 -0.00327498 0.00942478 1.96674
46.655 0.130651 -0.00759633 0.00942478 1.96808
46.66 0.136166 -0.00317854 0.00911062 1.96905
46.665 0.0682687 -0.0107256 0.00911062 1.96977
46.67 0.0571944 -0.00683089 0.00911062 1.97029
46.675 0.0240671 -0.00970495 0.00911062 1.96038
46.68 -0.00155872 -0.00982686 0.00911062 1.9662
46.685 0.0397333 -0.0038082 0.00911062 1.96769
46.69 0.0172225 -0.00943143 0.00911062 1.96877
46.695 0.157697 0.00669138 0.00879646 1.95928
46.7 0.171068 -0.00242286 0.00879646 1.96539
46.705 0.199066 -0.000611403 0.00879646 1.9671
46.71 0.18776 -0.00428941 0.00911062 1.95806
46.715 0.106191 -0.0117905 0.00911062 1.95422
46.72 0.125938 -0.00348554 0.00911062 1.96171
46.725 0.0452196 -0.013456 0.00911062 1.96442
46.73 0.0444956 -0.00741813 0.00911062 1.97668
46.735 0.00369719 -0.0118983 0.00911062 1.97258
46.74 0.0114017 -0.00811586 0.00911062 1.97234
46.745 0.0685404 -0.00291461 0.00911062 1.97216
46.75 0.0670469 -0.0076567 0.00911062 1.96175
46.755 0.148317 0.000936114 0.00911062 1.96719
46.76 0.142697 -0.00589327 0.00911062 1.96841
46.765 0.202567 0.000716142 0.00911062 1.9693
46.77 0.234741 -0.00048777 0.00911062 1.96994
46.775 0.22668 -0.00373957 0.00911062 1.97041
46.78 0.252283 -0.000432038 0.00911062 1.97075
46.785 0.16667 -0.0114477 0.00911062 1.96072
46.79 0.124161 -0.00893027 0.00879646 1.96644
46.795 0.0513802 -0.0133747 0.00879646 1.96786
46.8 0.0150073 -0.0117399 0.00879646 1.9689
46.805 -0.00676984 -0.0113871 0.00879646 1.96965
46.81 0.032882 -0.00577508 0.00879646 1.9702
46.815 0.133725 0.00155636 0.00879646 1.9706
46.82 0.19677 0.000380049 0.00879646 1.97089
46.825 0.222613 -0.00195357 0.00879646 1.96081
46.83 0.271688 0.00148442 0.00879646 1.96651
46.835 0.310305 0.00161793 0.00911062 1.96791
46.84 0.26084 -0.00635616 0.00911062 1.96893
46.845 0.188637 -0.0100363 0.00911062 1.96967
46.85 0.153203 -0.00822445 0.00911062 1.97022
46.855 0.123735 -0.00878101 0.00942478 1.97061
46.86 0.0909403 -0.010182 0.00942478 1.96062
46.865 0.0347396 -0.013376 0.00942478 1.96636
46.87 0.0237792 -0.0104259 0.00942478 1.96781
46.875 0.00986464 -0.0111815 0.00942478 1.96885
46.88 0.0156685 -0.00956193 0.00942478 1.97991
46.885 0.0670019 -0.00493964 0.00942478 1.97492
46.89 0.0760106 -0.00800143 0.00942478 1.97404
46.895 0.176269 0.00165969 0.00942478 1.9734
46.9 0.187234 -0.00486443 0.00942478 1.97293
46.905 0.218938 -0.00239768 0.00942478 1.97259
46.91 0.170206 -0.00986098 0.00942478 1.97234
46.915 0.151784 -0.0080708 0.00942478 1.97216
46.92 0.158428 -0.006002 0.00942478 1.97203
46.925 0.0899898 -0.0136551 0.00942478 1.97193
46.93 0.154307 -0.00182103 0.00942478 1.97186
46.935 0.185849 -0.00368989 0.00942478 1.96152
46.94 0.237404 -0.00046816 0.00942478 1.96703
46.945 0.296135 0.00169623 0.00942478 1.96828
46.95 0.265736 -0.00599608 0.00973894 1.96921
46.955 0.265038 -0.00368867 0.00973894 1.96987
46.96 0.236093 -0.00658243 0.00973894 1.97036
46.965 0.206978 -0.00736816 0.00973894 1.97072
46.97 0.131089 -0.0132563 0.00973894 1.96069
46.975 0.0862482 -0.0119292 0.00942478 1.95613
46.98 0.0367068 -0.0135633 0.00942478 1.9631
46.985 -0.00925176 -0.014761 0.00942478 1.96542
46.99 0.0444205 -0.00587465 0.00942478 1.96712
46.995 0.0783598 -0.00655698 0.00942478 1.96836
47 0.101787 -0.00680138 0.00942478 1.96926
47.005 0.158646 -0.00274978 0.00942478 1.96991
47.01 0.218487 -0.00112394 0.00942478 1.96011
47.015 0.211245 -0.00610565 0.00942478 1.96599
47.02 0.186182 -0.00836119 0.00973894 1.96754
47.025 0.118066 -0.0135346 0.00973894 1.96866
47.03 0.0525951 -0.0150699 0.00973894 1.97976
47.035 0.0183577 -0.0139536 0.00973894 1.97482
47.04 -0.0136818 -0.0147823 0.00973894 1.97397
47.045 -0.0208877 -0.013256 0.00973894 1.97334
47.05 -0.0167501 -0.0124509 0.00973894 1.97289
47.055 -2.31266e-05 -0.0111958 0.00973894 1.97256
47.06 0.0649596 -0.00586228 0.00973894 1.97232
47.065 0.104538 -0.00666999 0.00973894 1.98243
47.07 0.183493 -0.00167726 0.00973894 1.97676
47.075 0.240132 -0.00177826 0.00973894 1.97538
47.08 0.221261 -0.00802315 0.00973894 1.97437
47.085 0.242121 -0.00459773 0.00973894 1.96335
47.09 0.221007 -0.00803598 0.00973894 1.96836
47.095 0.164057 -0.0123758 0.00973894 1.96926
47.1 0.0615474 -0.0187096 0.00973894 1.96991
47.105 0.0429953 -0.0127743 0.00942478 1.97039
47.11 0.012162 -0.0146857 0.00942478 1.97074
47.115 0.00913191 -0.0127939 0.00942478 1.97099
47.12 0.0971358 -0.00367859 0.00942478 1.96089
47.125 0.14499 -0.00548881 0.00942478 1.95628
47.13 0.248586 0.0017434 0.00942478 1.9632
47.135 0.273937 -0.00345965 0.00942478 1.9655
47.14 0.242703 -0.00877893 0.00942478 1.95689
47.145 0.192639 -0.0112358 0.00942478 1.96365
47.15 0.124709 -0.0145396 0.00942478 1.96583
47.155 0.129517 -0.00909957 0.00942478 1.95713
47.16 0.0511057 -0.0175422 0.00942478 1.95354
47.165 0.0427182 -0.0124654 0.00942478 1.96121
47.17 0.0212221 -0.0142055 0.00942478 1.96405
47.175 0.05801 -0.00889296 0.00942478 1.96612
47.18 0.058194 -0.0115045 0.00911062 1.97791
47.185 0.062929 -0.0112625 0.00911062 1.97347
47.19 0.106085 -0.00719965 0.00911062 1.97298
47.195 0.0984556 -0.0111922 0.00879646 1.97263
47.2 0.0944441 -0.0110921 0.00879646 1.97237
47.205 0.114533 -0.00860623 0.0084823 1.97218
47.21 0.1224 -0.00937145 0.0084823 1.97204
47.215 0.109031 -0.0111268 0.00816814 1.98223
47.22 0.0817398 -0.0131623 0.00816814 1.97662
47.225 0.094088 -0.00967516 0.00785398 1.97527
47.23 0.131523 -0.00678704 0.00785398 1.9743
47.235 0.0843455 -0.0145986 0.00785398 1.97358
47.24 0.0489739 -0.0145952 0.00753982 1.97307
47.245 0.0758072 -0.00904834 0.00722566 1.97268
47.25 0.11129 -0.0073871 0.00722566 1.9827
47.255 0.102068 -0.0109981 0.0069115 1.98724
47.26 0.0817801 -0.0125269 0.0069115 1.98027
47.265 0.0851957 -0.0106802 0.0069115 1.97793
47.27 0.0792948 -0.0114729 0.00659734 1.97624
47.275 0.0659801 -0.0125419 0.00659734 1.96471
47.28 0.0713564 -0.0108298 0.00628319 1.96935
47.285 0.0942989 -0.00894726 0.00628319 1.96998
47.29 0.110283 -0.00893722 0.00596903 1.97044
47.295 0.0895448 -0.0123594 0.00596903 1.97077
47.3 0.0562428 -0.0141495 0.00565487 1.97102
47.305 0.058921 -0.0114236 0.00565487 1.97119
47.31 0.077275 -0.0096908 0.00534071 1.96104
47.315 0.0616792 -0.0125815 0.00502655 1.96667
47.32 0.0221014 -0.0155988 0.00502655 1.96803
47.325 -0.0222393 -0.0171558 0.00471239 1.96902
47.33 -0.0157981 -0.0133056 0.00471239 1.98003
47.335 -0.0333922 -0.0155592 0.00439823 1.97501
47.34 -0.0447872 -0.0154218 0.00408407 1.97411
47.345 -0.00325501 -0.0103945 0.00408407 1.97344
47.35 0.030165 -0.0100191 0.00376991 1.96268
47.355 0.0899003 -0.00637798 0.00345575 1.96786
47.36 0.125922 -0.00721129 0.00345575 1.9689
47.365 0.12186 -0.0102353 0.00314159 1.96965
47.37 0.16811 -0.00510013 0.00314159 1.98049
47.375 0.155834 -0.00977015 0.00282743 1.97535
47.38 0.13659 -0.010663 0.00251327 1.97435
47.385 0.0963007 -0.0133984 0.00251327 1.97362
47.39 0.0488815 -0.0151452 0.00219911 1.97309
47.395 0.0264141 -0.0137905 0.00188496 1.97271
47.4 -0.0231302 -0.0171793 0.0015708 1.97243
47.405 0.0099698 -0.010013 0.00125664 1.98251
47.41 0.0177202 -0.0115845 0.000942478 1.97682
47.415 0.0791204 -0.00575245 0.000628319 1.97542
47.42 0.0945519 -0.00874053 0.000314159 1.9744
47.425 0.119013 -0.0074125 0.000314159 1.97366
47.43 0.140806 -0.00687395 0 1.97312
47.435 0.110694 -0.0115167 -0.000314159 1.97273
47.44 0.0834449 -0.011923 -0.000628319 1.97244
47.445 0.0133628 -0.0172731 -0.000628319 1.98252
47.45 0.0056608 -0.0126665 -0.000942478 1.98711
47.455 -0.025295 -0.0151397 -0.00125664 1.98017
47.46 -0.0295359 -0.0133894 -0.00125664 1.97787
47.465 -0.0377074 -0.0139027 -0.0015708 1.97618
47.47 -0.00881413 -0.0104126 -0.0015708 1.97496
47.475 0.0715622 -0.00421106 -0.00188496 1.97407
47.48 0.0834881 -0.00900534 -0.00219911 1.97342
47.485 0.137738 -0.00436053 -0.00219911 1.98323
47.49 0.155775 -0.006429 -0.00251327 1.98763
47.495 0.168403 -0.0062407 -0.00282743 1.98055
47.5 0.160561 -0.00802287 -0.00282743 1.97814
47.505 0.0963869 -0.0140088 -0.00314159 1.98667
47.51 0.0648313 -0.0123078 -0.00314159 1.97985
47.515 -0.0152236 -0.0181736 -0.00345575 1.97763
47.52 -0.0611863 -0.0167992 -0.00376991 1.97601
47.525 -0.0934899 -0.0168612 -0.00408407 1.98512
47.53 -0.111425 -0.0160101 -0.00439823 1.97872
47.535 -0.0979192 -0.0133369 -0.00471239 1.97681
47.54 -0.0618529 -0.0106415 -0.00502655 1.97541
47.545 -0.016716 -0.00849563 -0.00534071 1.96411
47.55 0.0268537 -0.00764328 -0.00565487 1.96891
47.555 0.0755383 -0.00575315 -0.00596903 1.96966
47.56 0.0673832 -0.0101804 -0.00628319 1.97021
47.565 0.0585544 -0.010518 -0.00659734 1.98089
47.57 0.0446424 -0.0109541 -0.0069115 1.97564
47.575 0.00542212 -0.0140821 -0.0069115 1.97456
47.58 -0.00843164 -0.012456 -0.00722566 1.97378
47.585 -0.0483502 -0.0154946 -0.00753982 1.9732
47.59 -0.0828488 -0.0160099 -0.00785398 1.97279
47.595 -0.106711 -0.0158595 -0.00816814 1.97248
47.6 -0.0264392 -0.00554371 -0.00879646 1.97227
47.605 0.0460093 -0.00430128 -0.00911062 1.98239
47.61 0.0499872 -0.00922397 -0.00942478 1.98702
47.615 0.0948818 -0.00431341 -0.0100531 1.9801
47.62 0.110752 -0.00602042 -0.0103673 1.97782
47.625 0.101583 -0.00821856 -0.0106814 1.98643
47.63 0.0667619 -0.0109449 -0.0109956 1.98997
47.635 0.0650392 -0.00791403 -0.0116239 1.98225
47.64 0.0696463 -0.0074716 -0.0119381 1.98967
47.645 0.0172569 -0.0131219 -0.0122522 1.99232
47.65 0.0503268 -0.00550428 -0.0125664 1.99426
47.655 0.0351298 -0.00952811 -0.0128805 1.99566
47.66 0.0671207 -0.00461773 -0.0131947 1.9864
47.665 0.048293 -0.00926367 -0.0135088 1.99269
47.67 0.0355844 -0.00894797 -0.013823 1.99452
47.675 0.0184012 -0.00922106 -0.0144513 1.98557
47.68 0.0298755 -0.00668878 -0.0147655 1.9818
47.685 0.0896966 -0.00146191 -0.0150796 1.98934
47.69 0.122894 -0.00247331 -0.0150796 1.99208
47.695 0.184846 0.00169428 -0.0153938 1.99408
47.7 0.177252 -0.00344088 -0.015708 1.98525
47.705 0.207485 0.000318859 -0.015708 1.98156
47.71 0.180553 -0.00473228 -0.0160221 1.98916
47.715 0.149172 -0.00563809 -0.0160221 1.98167
47.72 0.120044 -0.00612023 -0.0163363 1.97896
47.725 0.0661308 -0.00948929 -0.0163363 1.97698
47.73 0.0326279 -0.00896167 -0.0166504 1.98582
47.735 0.00643894 -0.00912159 -0.0166504 1.98952
47.74 -0.0143999 -0.00891881 -0.0169646 1.98193
47.745 0.0361495 -0.00205364 -0.0172788 1.97914
47.75 0.072484 -0.00218766 -0.0172788 1.97712
47.755 0.0978912 -0.00217764 -0.0175929 1.97564
47.76 0.0843066 -0.00537061 -0.0179071 1.97456
47.765 0.117727 -0.000693523 -0.0182212 1.97377
47.77 0.131918 -0.00193494 -0.0182212 1.98349
47.775 0.155497 -9.32104e-05 -0.0185354 1.97753
47.78 0.097153 -0.0079848 -0.0185354 1.97594
47.785 0.0930029 -0.00378389 -0.0188496 1.97478
47.79 0.0769457 -0.00513298 -0.0188496 1.97394
47.795 -0.0042163 -0.0123647 -0.0188496 1.97332
47.8 -0.00543137 -0.00620838 -0.0191637 1.97288
47.805 -0.0258246 -0.00831279 -0.0191637 1.97255
47.81 -0.00881131 -0.00521509 -0.0194779 1.9826
47.815 0.0247982 -0.00296431 -0.0194779 1.98717
47.82 0.0586464 -0.00159014 -0.019792 1.98022
47.825 0.101151 0.00014518 -0.019792 1.97789
47.83 0.136861 0.000633349 -0.019792 1.97621
47.835 0.169813 0.00154549 -0.0201062 1.97497
47.84 0.173145 -0.000545529 -0.0201062 1.97408
47.845 0.20582 0.00284554 -0.0204204 1.97342
47.85 0.213818 0.00114772 -0.0204204 1.98324
47.855 0.160841 -0.00484925 -0.0204204 1.98763
47.86 0.118257 -0.00480931 -0.0207345 1.98056
47.865 0.0608099 -0.00756248 -0.0207345 1.97814
47.87 0.0631849 -0.00300617 -0.0210487 1.98667
47.875 0.0963848 0.000591212 -0.0210487 1.97985
47.88 0.174378 0.00612456 -0.0210487 1.97763
47.885 0.234416 0.00649005 -0.0210487 1.97601
47.89 0.254405 0.0040062 -0.0210487 1.98512
47.895 0.272588 0.00458283 -0.0210487 1.98901
47.9 0.29275 0.00556697 -0.0210487 1.98156
47.905 0.299203 0.00483393 -0.0210487 1.97887
47.91 0.238054 -0.00186106 -0.0210487 1.97692
47.915 0.167692 -0.00438583 -0.0210487 1.97549
47.92 0.103992 -0.00557404 -0.0210487 1.97446
47.925 0.0601676 -0.00525796 -0.0210487 1.9737
47.93 0.0411675 -0.00410534 -0.0210487 1.98344
47.935 0.0305256 -0.00375189 -0.0210487 1.98778
47.94 0.0618599 0.000517215 -0.0210487 1.98066
47.945 0.0925623 0.00122472 -0.0210487 1.97822
47.95 0.162409 0.00616074 -0.0210487 1.97644
47.955 0.178214 0.00240599 -0.0210487 1.98543
47.96 0.217027 0.00549992 -0.0210487 1.97895
47.965 0.262177 0.00730547 -0.0210487 1.97697
47.97 0.27306 0.00508484 -0.0210487 1.98582
47.975 0.226819 -0.000421612 -0.0210487 1.98952
47.98 0.147255 -0.00510741 -0.0210487 1.99221
47.985 0.11595 -0.00207434 -0.0210487 1.98389
47.99 0.0391413 -0.00772579 -0.0210487 1.98057
47.995 0.0291447 -0.0031129 -0.0210487 1.98844
48 0.0579593 0.000694182 -0.0210487 1.99143
48.005 0.120722 0.00522091 -0.0210487 1.98332
48.01 0.197268 0.0082432 -0.0210487 1.99044
48.015 0.229043 0.00600932 -0.0213628 1.99288
48.02 0.283351 0.00941226 -0.0213628 1.99467
48.025 0.314212 0.00865206 -0.0213628 1.99596
48.03 0.339425 0.00913661 -0.0213628 1.98662
48.035 0.257821 -0.0011993 -0.0213628 1.99285
48.04 0.148698 -0.0062527 -0.0213628 1.99464
48.045 0.0915196 -0.00381082 -0.0213628 1.99594
48.05 0.0665788 -0.00187191 -0.0213628 1.98661
48.055 0.063614 -0.000502174 -0.0213628 1.99283
48.06 0.0742939 0.000874144 -0.0213628 1.99463
48.065 0.128308 0.0057268 -0.0213628 1.99593
48.07 0.177763 0.00680201 -0.0213628 1.99689
48.075 0.260446 0.0116779 -0.0210487 1.98729
48.08 0.328401 0.0124996 -0.0210487 1.99334
48.085 0.332971 0.00797077 -0.0210487 1.99499
48.09 0.323097 0.0066303 -0.0207345 1.9962
48.095 0.263497 0.00132579 -0.0207345 1.9868
48.1 0.17731 -0.00303118 -0.0207345 1.99298
48.105 0.102832 -0.00431728 -0.0204204 1.99473
48.11 0.0535654 -0.00376409 -0.0204204 1.99601
48.115 0.0355631 -0.0019024 -0.0204204 1.99694
48.12 0.0500271 0.00110587 -0.0204204 1.98734
48.125 0.0701113 0.00184278 -0.0204204 1.99337
48.13 0.140658 0.00774843 -0.0204204 1.99502
48.135 0.207025 0.00933707 -0.0204204 1.99622
48.14 0.27477 0.0114777 -0.0204204 1.98681
48.145 0.340104 0.0132256 -0.0204204 1.99298
48.15 0.318961 0.00618654 -0.0204204 1.99474
48.155 0.290449 0.00500486 -0.0204204 1.99601
48.16 0.304554 0.00869973 -0.0201062 1.99695
48.165 0.282412 0.00543256 -0.0201062 1.98734
48.17 0.225465 0.00130825 -0.0201062 1.99337
48.175 0.225658 0.00565916 -0.019792 1.99502
48.18 0.192398 0.00223688 -0.019792 1.99622
48.185 0.176433 0.00322473 -0.019792 1.98681
48.19 0.16621 0.00321732 -0.0194779 1.99299
48.195 0.198646 0.00748025 -0.0194779 1.99474
48.2 0.237786 0.00917488 -0.0194779 1.99602
48.205 0.240021 0.00632733 -0.0191637 1.98666
48.21 0.199338 0.00198545 -0.0191637 1.98259
48.215 0.235813 0.00900107 -0.0191637 1.98991
48.22 0.217119 0.00417931 -0.0188496 1.9925
48.225 0.207337 0.00467563 -0.0188496 1.9841
48.23 0.188601 0.00352217 -0.0188496 1.98073
48.235 0.223719 0.00869967 -0.0188496 1.98855
48.24 0.219836 0.00568382 -0.0188496 1.99151
48.245 0.273011 0.011665 -0.0188496 1.99366
48.25 0.280439 0.00847735 -0.0188496 1.99523
48.255 0.326057 0.0127676 -0.0188496 1.98609
48.26 0.333159 0.0102543 -0.0188496 1.99246
48.265 0.346266 0.0110875 -0.0185354 1.99435
48.27 0.338602 0.0093477 -0.0185354 1.98545
48.275 0.317897 0.00779888 -0.0182212 1.98171
48.28 0.290064 0.00673072 -0.0182212 1.98927
48.285 0.245564 0.00428901 -0.0182212 1.99203
48.29 0.258375 0.00899563 -0.0179071 1.99405
48.295 0.254241 0.0076708 -0.0179071 1.99551
48.3 0.255498 0.00821619 -0.0179071 1.99658
48.305 0.290433 0.0117388 -0.0175929 1.99735
48.31 0.304101 0.0106034 -0.0175929 1.99792
48.315 0.322824 0.0116562 -0.0175929 1.99833
48.32 0.276634 0.00532279 -0.0172788 1.99864
48.325 0.256795 0.00690923 -0.0172788 1.99885
48.33 0.237914 0.0065381 -0.0172788 1.99901
48.335 0.263661 0.0107859 -0.0172788 1.99913
48.34 0.245627 0.00672441 -0.0169646 1.98893
48.345 0.241802 0.00780629 -0.0169646 1.98424
48.35 0.228171 0.00682077 -0.0169646 1.99112
48.355 0.236576 0.0087897 -0.0169646 1.99338
48.36 0.219648 0.00634061 -0.0169646 1.98474
48.365 0.209718 0.006579 -0.0166504 1.99147
48.37 0.220657 0.00851674 -0.0166504 1.99364
48.375 0.216189 0.00724984 -0.0166504 1.99521
48.38 0.229219 0.00901135 -0.0166504 1.99636
48.385 0.196443 0.00453992 -0.0166504 1.98691
48.39 0.159378 0.00306252 -0.0163363 1.98278
48.395 0.130918 0.00294367 -0.0163363 1.99004
48.4 0.112479 0.00315074 -0.0163363 1.98231
48.405 0.131396 0.00648366 -0.0163363 1.97942
48.41 0.163395 0.00817763 -0.0160221 1.97732
48.415 0.202209 0.009826 -0.0160221 1.98607
48.42 0.281471 0.0151983 -0.0160221 1.9897
48.425 0.354851 0.0169291 -0.0160221 1.99234
48.43 0.364398 0.0121496 -0.015708 1.98399
48.435 0.375889 0.0129693 -0.015708 1.99093
48.44 0.323823 0.0067511 -0.015708 1.99324
48.445 0.346355 0.0131211 -0.015708 1.98464
48.45 0.269542 0.0035145 -0.015708 1.98112
48.455 0.21104 0.00347703 -0.015708 1.98884
48.46 0.130136 -0.000542906 -0.015708 1.99172
48.465 0.117969 0.0044987 -0.0160221 1.98353
48.47 0.152633 0.00899162 -0.0160221 1.98031
48.475 0.182541 0.00942208 -0.0160221 1.97796
48.48 0.236374 0.0127417 -0.0160221 1.97626
48.485 0.30111 0.0154114 -0.0160221 1.97501
48.49 0.368599 0.0175899 -0.0160221 1.97411
48.495 0.40847 0.0168082 -0.015708 1.98373
48.5 0.365095 0.00917637 -0.0153938 1.988
48.505 0.371492 0.0131836 -0.0150796 1.9911
48.51 0.296405 0.00464884 -0.0147655 1.98308
48.515 0.250968 0.00580118 -0.0147655 1.97998
48.52 0.162623 -4.38545e-05 -0.0144513 1.97772
48.525 0.12644 0.00276752 -0.0141372 1.97608
48.53 0.130709 0.00576516 -0.013823 1.97488
48.535 0.168535 0.00932402 -0.013823 1.974
48.54 0.216407 0.011364 -0.0135088 1.98365
48.545 0.262868 0.0124251 -0.0135088 1.97765
48.55 0.324065 0.0151819 -0.0131947 1.97602
48.555 0.339782 0.0122471 -0.0131947 1.97484
48.56 0.396224 0.0168925 -0.0128805 1.97397
48.565 0.391781 0.0122863 -0.0128805 1.97334
48.57 0.356883 0.00899941 -0.0125664 1.97289
48.575 0.281694 0.00418707 -0.0125664 1.98284
48.58 0.238533 0.00539449 -0.0125664 1.98734
48.585 0.206835 0.00510592 -0.0122522 1.98034
48.59 0.209705 0.00787818 -0.0122522 1.97798
48.595 0.217942 0.00836277 -0.0119381 1.97626
48.6 0.168917 0.00247419 -0.0116239 1.97501
48.605 0.163971 0.00567733 -0.0116239 1.9741
48.61 0.212832 0.0109518 -0.0113097 1.97344
48.615 0.220594 0.00787695 -0.0109956 1.97296
48.62 0.262347 0.0118416 -0.0109956 1.98289
48.625 0.201474 0.00194744 -0.0106814 1.9771
48.63 0.212744 0.00768093 -0.0103673 1.97563
48.635 0.184911 0.00392535 -0.0103673 1.97455
48.64 0.210559 0.00855231 -0.0100531 1.97377
48.645 0.204954 0.00585785 -0.00973894 1.9732
48.65 0.160214 0.00162947 -0.00973894 1.97278
48.655 0.156302 0.00473223 -0.00973894 1.98277
48.66 0.114106 0.000519289 -0.00973894 1.98729
48.665 0.1022 0.00236834 -0.00973894 1.98031
48.67 0.106804 0.00369215 -0.00973894 1.97796
48.675 0.103915 0.00295863 -0.00973894 1.97626
48.68 0.141201 0.00707304 -0.00973894 1.9853
48.685 0.173352 0.00743503 -0.00973894 1.97885
48.69 0.232492 0.0111381 -0.00973894 1.9769
48.695 0.206257 0.00390443 -0.00973894 1.97548
48.7 0.272392 0.0129779 -0.00973894 1.98473
48.705 0.251487 0.00560392 -0.00973894 1.97844
48.71 0.260048 0.00819021 -0.00973894 1.9766
48.715 0.194295 0.000733337 -0.00973894 1.97527
48.72 0.206103 0.00699194 -0.00973894 1.97429
48.725 0.202571 0.00572807 -0.00973894 1.97358
48.73 0.184033 0.0039145 -0.00942478 1.97306
48.735 0.150233 0.00189816 -0.00942478 1.98297
48.74 0.123718 0.00162169 -0.00942478 1.98744
48.745 0.181556 0.00959415 -0.00942478 1.98042
48.75 0.189264 0.00579366 -0.00911062 1.97804
48.755 0.179047 0.00413249 -0.00911062 1.97631
48.76 0.200101 0.00709669 -0.00911062 1.97505
48.765 0.215365 0.00708175 -0.00911062 1.97414
48.77 0.316012 0.0164162 -0.00911062 1.97346
48.775 0.317752 0.00901132 -0.00911062 1.97298
48.78 0.345186 0.0118389 -0.00911062 1.97262
48.785 0.298273 0.00498662 -0.00911062 1.97237
48.79 0.277511 0.00649072 -0.00911062 1.97218
48.795 0.257551 0.00587439 -0.00911062 1.96175
48.8 0.226914 0.00434035 -0.00879646 1.96719
48.805 0.192827 0.00309895 -0.00879646 1.96841
48.81 0.175963 0.00393033 -0.00879646 1.96929
48.815 0.190734 0.00671572 -0.0084823 1.98023
48.82 0.223561 0.00881998 -0.0084823 1.97516
48.825 0.249687 0.00892978 -0.00816814 1.97421
48.83 0.272059 0.00930258 -0.00816814 1.97352
48.835 0.255442 0.00556789 -0.00785398 1.96273
48.84 0.282697 0.00995699 -0.00785398 1.96791
48.845 0.259341 0.00546994 -0.00785398 1.96893
48.85 0.23961 0.00508537 -0.00753982 1.96967
48.855 0.20347 0.00285848 -0.00753982 1.97022
48.86 0.180572 0.00322742 -0.00753982 1.97061
48.865 0.16147 0.00296247 -0.00753982 1.9709
48.87 0.101262 -0.00215133 -0.00722566 1.96082
48.875 0.164167 0.00900942 -0.00722566 1.96652
48.88 0.169124 0.00468225 -0.00722566 1.96791
48.885 0.254107 0.0131042 -0.00722566 1.96894
48.89 0.264396 0.00795193 -0.00722566 1.97996
48.895 0.239923 0.00440987 -0.00722566 1.97497
48.9 0.255177 0.00795601 -0.00722566 1.97407
48.905 0.283062 0.00957945 -0.0069115 1.97342
48.91 0.327686 0.0119088 -0.0069115 1.96266
48.915 0.339417 0.00998314 -0.00659734 1.96785
48.92 0.295347 0.00455319 -0.00659734 1.96889
48.925 0.248418 0.00294528 -0.00628319 1.96965
48.93 0.222207 0.00403486 -0.00628319 1.98048
48.935 0.23474 0.00692604 -0.00596903 1.97534
48.94 0.255727 0.00822806 -0.00596903 1.97434
48.945 0.280041 0.00903512 -0.00565487 1.97362
48.95 0.273203 0.00652101 -0.00565487 1.97309
48.955 0.359709 0.0159424 -0.00534071 1.97271
48.96 0.383992 0.0119868 -0.00534071 1.97242
48.965 0.440646 0.0163917 -0.00502655 1.98251
48.97 0.466109 0.0142695 -0.00471239 1.97682
48.975 0.392045 0.00475468 -0.00439823 1.97542
48.98 0.378511 0.00899626 -0.00408407 1.9744
48.985 0.296769 0.00148626 -0.00376991 1.97367
48.99 0.228574 0.000528871 -0.00345575 1.97313
48.995 0.168482 -0.000680557 -0.00314159 1.97274
49 0.115375 -0.00183373 -0.00282743 1.97245
49.005 0.172009 0.00826355 -0.00282743 1.98253
49.01 0.166988 0.00311934 -0.00251327 1.98713
49.015 0.224891 0.00913178 -0.00219911 1.98019
49.02 0.257119 0.00794039 -0.00188496 1.97788
49.025 0.274929 0.00719478 -0.0015708 1.9762
49.03 0.303128 0.00880989 -0.0015708 1.97497
49.035 0.294875 0.00569802 -0.00125664 1.97408
49.04 0.303712 0.0071464 -0.000942478 1.97343
49.045 0.270519 0.00324923 -0.000628319 1.98324
49.05 0.189117 -0.00299947 -0.000314159 1.98765
49.055 0.144865 -0.00181406 0 1.98057
49.06 0.0966412 -0.00362461 0.000314159 1.97816
49.065 0.121546 0.00276615 0.000314159 1.98669
49.07 0.17825 0.00627589 0.000628319 1.97987
49.075 0.240605 0.00843538 0.000628319 1.97765
49.08 0.253989 0.00490492 0.000942478 1.97603
49.085 0.291583 0.00814378 0.000942478 1.98513
49.09 0.302893 0.00640675 0.000942478 1.98902
49.095 0.356244 0.0107267 0.00125664 1.98156
49.1 0.32266 0.00329288 0.00125664 1.97888
49.105 0.296189 0.00302696 0.0015708 1.97692
49.11 0.280703 0.00382915 0.0015708 1.98578
49.115 0.197952 -0.00417727 0.00188496 1.9792
49.12 0.196395 0.00190555 0.00219911 1.97716
49.125 0.224232 0.00519003 0.00219911 1.98595
49.13 0.231496 0.0035573 0.00251327 1.98962
49.135 0.258352 0.00537769 0.00282743 1.982
49.14 0.295802 0.00714499 0.00314159 1.9792
49.145 0.307533 0.00538788 0.00345575 1.97715
49.15 0.314209 0.00545547 0.00376991 1.98595
49.155 0.296465 0.00252917 0.00408407 1.97933
49.16 0.216488 -0.00447104 0.00439823 1.97725
49.165 0.188842 -0.00110304 0.00471239 1.98602
49.17 0.155747 -0.00276857 0.00502655 1.98967
49.175 0.166684 0.000692069 0.00534071 1.99232
49.18 0.169826 -0.000284235 0.00565487 1.98397
49.185 0.165736 -0.00112537 0.00596903 1.98063
49.19 0.177237 0.000599855 0.00596903 1.98848
49.195 0.1964 0.00117541 0.00628319 1.98117
49.2 0.221707 0.0022129 0.00659734 1.97859
49.205 0.27439 0.00575548 0.00659734 1.97671
49.21 0.27509 0.00202445 0.0069115 1.98563
49.215 0.258887 2.61468e-05 0.00722566 1.98938
49.22 0.220557 -0.00303468 0.00722566 1.98183
49.225 0.219217 -0.000329461 0.00753982 1.97907
49.23 0.167906 -0.00546621 0.00785398 1.98735
49.235 0.117335 -0.00700582 0.00785398 1.99063
49.24 0.111068 -0.00425672 0.00816814 1.98274
49.245 0.117086 -0.00337074 0.0084823 1.97973
49.25 0.214042 0.00648221 0.0084823 1.98783
49.255 0.255329 0.00312805 0.00879646 1.99098
49.26 0.262433 0.000258528 0.00911062 1.98299
49.265 0.291927 0.0027209 0.00942478 1.97992
49.27 0.261381 -0.00284145 0.00973894 1.97768
49.275 0.226053 -0.00382746 0.00973894 1.98633
49.28 0.177407 -0.0067998 0.0100531 1.97961
49.285 0.149641 -0.00593328 0.0100531 1.97745
49.29 0.100599 -0.008895 0.0103673 1.98617
49.295 0.0890569 -0.00656438 0.0103673 1.98977
49.3 0.11272 -0.00353793 0.0103673 1.98211
49.305 0.119252 -0.00474087 0.0103673 1.97928
49.31 0.174231 0.000397054 0.0103673 1.97721
49.315 0.196775 -0.00121767 0.0103673 1.98599
49.32 0.21664 -0.0012751 0.0103673 1.97936
49.325 0.246973 0.000424895 0.0103673 1.97727
49.33 0.201839 -0.00659589 0.0103673 1.97575
49.335 0.208795 -0.00213184 0.0103673 1.98493
49.34 0.221429 -0.00176582 0.0103673 1.97859
49.345 0.221407 -0.0026694 0.0103673 1.97671
49.35 0.24108 -0.000630048 0.0103673 1.97534
49.355 0.192908 -0.00700149 0.0106814 1.98463
49.36 0.193823 -0.00365388 0.0106814 1.97837
49.365 0.218204 -0.00113882 0.0106814 1.97655
49.37 0.24156 -0.000745716 0.0109956 1.97523
49.375 0.204718 -0.0060518 0.0109956 1.98454
49.38 0.220728 -0.00169843 0.0109956 1.98859
49.385 0.232829 -0.00196314 0.0109956 1.98125
49.39 0.220291 -0.00414437 0.0109956 1.97865
49.395 0.211593 -0.00379928 0.0109956 1.98704
49.4 0.157864 -0.00890431 0.0109956 1.99041
49.405 0.179257 -0.00284326 0.0109956 1.98257
49.41 0.21624 -0.000633143 0.0109956 1.97962
49.415 0.193177 -0.00561309 0.0109956 1.98774
49.42 0.162692 -0.0074317 0.0109956 1.98064
49.425 0.194373 -0.00178608 0.0109956 1.9782
49.43 0.191301 -0.00457786 0.0109956 1.97643
49.435 0.200114 -0.00316825 0.0109956 1.98542
49.44 0.209407 -0.0032874 0.0109956 1.97894
49.445 0.203338 -0.00458783 0.0109956 1.97697
49.45 0.180901 -0.00649715 0.0109956 1.97553
49.455 0.12441 -0.0104666 0.0109956 1.98477
49.46 0.0940798 -0.00973824 0.0109956 1.97847
49.465 0.0451187 -0.0125852 0.0109956 1.97662
49.47 -0.0166631 -0.0154455 0.0109956 1.97528
49.475 -0.0217662 -0.0113136 0.0106814 1.9743
49.48 -0.0169295 -0.0106422 0.0106814 1.97359
49.485 0.055115 -0.00372502 0.0106814 1.97306
49.49 0.141074 -0.000429359 0.0106814 1.97269
49.495 0.200945 -0.000836045 0.0106814 1.97241
49.5 0.263909 0.00112392 0.0106814 1.97221
49.505 0.253865 -0.00469676 0.0106814 1.97206
49.51 0.24662 -0.00466255 0.0106814 1.97196
49.515 0.255038 -0.00321943 0.0106814 1.97188
49.52 0.166984 -0.0130048 0.0106814 1.97183
49.525 0.154255 -0.00766582 0.0106814 1.97178
49.53 0.0747147 -0.0150384 0.0106814 1.97175
49.535 0.0530782 -0.0110386 0.0103673 1.98202
49.54 0.068962 -0.00808401 0.0103673 1.97647
49.545 0.0549342 -0.010703 0.0100531 1.97516
49.55 0.0574738 -0.00951326 0.0100531 1.97422
49.555 0.0605166 -0.0093781 0.00973894 1.97352
49.56 0.103281 -0.00529784 0.00973894 1.97302
49.565 0.0965202 -0.00937019 0.00973894 1.97265
49.57 0.155153 -0.00285677 0.00973894 1.97239
49.575 0.124741 -0.0103971 0.00942478 1.97219
49.58 0.152503 -0.00526726 0.00942478 1.97205
49.585 0.126469 -0.0103088 0.00973894 1.97195
49.59 0.0952537 -0.0116482 0.00973894 1.97187
49.595 0.124813 -0.00629376 0.00973894 1.97182
49.6 0.119032 -0.00922834 0.00973894 1.97178
49.605 0.101153 -0.0107294 0.00973894 1.97175
49.61 0.0756256 -0.0119963 0.00973894 1.98202
49.615 0.0494576 -0.0130475 0.00973894 1.97646
49.62 0.0841482 -0.00737758 0.00942478 1.97516
49.625 0.0772553 -0.0108579 0.00942478 1.97421
49.63 0.0841206 -0.00983892 0.00942478 1.96324
49.635 0.0664919 -0.0120043 0.00911062 1.96827
49.64 0.0991542 -0.00741537 0.00911062 1.9692
49.645 0.0610166 -0.0139567 0.00911062 1.96987
49.65 0.0971739 -0.00714919 0.00879646 1.98065
49.655 0.130559 -0.00664584 0.00879646 1.97546
49.66 0.126257 -0.00968198 0.00879646 1.97443
49.665 0.116133 -0.010314 0.0084823 1.97368
49.67 0.0487867 -0.0166255 0.0084823 1.97314
49.675 0.0720454 -0.00918798 0.0084823 1.97274
49.68 0.0665596 -0.0116424 0.0084823 1.97245
49.685 0.0889379 -0.00884812 0.00816814 1.97224
49.69 0.0530282 -0.0143211 0.00816814 1.98237
49.695 -0.0209871 -0.0194985 0.00816814 1.97672
49.7 -0.0466922 -0.016678 0.00816814 1.97535
49.705 -0.0790229 -0.0181258 0.00785398 1.97435
49.71 -0.052578 -0.0131266 0.00785398 1.97362
49.715 -0.0764629 -0.0176795 0.00753982 1.97309
49.72 -0.101522 -0.0186832 0.00753982 1.97271
49.725 -0.0371114 -0.0102044 0.00722566 1.98271
49.73 -0.0171812 -0.0130465 0.0069115 1.98726
49.735 0.0204554 -0.0107183 0.0069115 1.98028
49.74 0.0200394 -0.0136535 0.00659734 1.97794
49.745 0.0272156 -0.0128414 0.00628319 1.97624
49.75 0.0231352 -0.0137769 0.00596903 1.975
49.755 0.016932 -0.0140735 0.00565487 1.97409
49.76 -0.0185169 -0.0172579 0.00534071 1.97344
49.765 0.024935 -0.0100833 0.00502655 1.98324
49.77 0.0422087 -0.0115357 0.00471239 1.98764
49.775 0.033741 -0.0135988 0.00439823 1.98056
49.78 0.0360885 -0.0126834 0.00408407 1.97815
49.785 0.00681779 -0.0158619 0.00376991 1.97639
49.79 -0.00250435 -0.0147174 0.00376991 1.97511
49.795 -0.0107715 -0.0148396 0.00345575 1.97417
49.8 -0.0567054 -0.0189714 0.00314159 1.9735
49.805 -0.0834513 -0.0184325 0.00282743 1.98328
49.81 -0.0399611 -0.0116571 0.00251327 1.97739
49.815 -0.0166272 -0.0126091 0.00219911 1.97583
49.82 0.0135897 -0.0112224 0.00188496 1.97471
49.825 0.0617706 -0.00851481 0.00188496 1.96359
49.83 0.127588 -0.00540752 0.0015708 1.96854
49.835 0.155611 -0.00731951 0.00125664 1.96938
49.84 0.142322 -0.0106579 0.000942478 1.97001
49.845 0.11436 -0.0124455 0.000628319 1.98074
49.85 0.106332 -0.0109267 0.000314159 1.97554
49.855 0.0820756 -0.0127277 0 1.97448
49.86 0.0109065 -0.0181759 -0.000314159 1.97372
49.865 -0.0652166 -0.0204434 -0.000628319 1.96288
49.87 -0.0318396 -0.0114091 -0.000942478 1.96801
49.875 -0.0272349 -0.0135537 -0.000942478 1.969
49.88 -0.0181075 -0.0129302 -0.00125664 1.96973
49.885 0.0183398 -0.00980125 -0.0015708 1.97026
49.89 0.0608388 -0.00809221 -0.00188496 1.97064
49.895 0.111021 -0.00591368 -0.00219911 1.96063
49.9 0.181689 -0.0023423 -0.00251327 1.95609
49.905 0.214691 -0.00428388 -0.00251327 1.96306
49.91 0.196885 -0.00837822 -0.00282743 1.9654
49.915 0.143791 -0.0124727 -0.00282743 1.9671
49.92 0.097936 -0.0131808 -0.00282743 1.96835
49.925 0.00198364 -0.0195278 -0.00314159 1.96925
49.93 -0.045567 -0.017268 -0.00314159 1.96991
49.935 -0.0925996 -0.0183163 -0.00345575 1.9601
49.94 -0.151678 -0.0210699 -0.00345575 1.9557
49.945 -0.116154 -0.0132473 -0.00376991 1.96278
49.95 -0.108928 -0.0151498 -0.00408407 1.9652
49.955 0.015747 -0.00260265 -0.00439823 1.95667
49.96 0.0956619 -0.00396823 -0.00471239 1.96349
49.965 0.136646 -0.00557143 -0.00502655 1.96571
49.97 0.162132 -0.00592126 -0.00502655 1.95704
49.975 0.165181 -0.0073794 -0.00534071 1.95347
49.98 0.158844 -0.00814426 -0.00565487 1.96116
49.985 0.0765396 -0.0161207 -0.00565487 1.96401
49.99 0.0333723 -0.01438 -0.00596903 1.97638
49.995 -0.0396984 -0.0183977 -0.00628319 1.97235
50 -0.0789737 -0.0169255 -0.00659734 1.97217
50.005 -0.0948382 -0.0154811 -0.00659734 1.96175
50.01 -0.0949589 -0.0143754 -0.0069115 1.95691
50.015 -0.00338453 -0.00516309 -0.00722566 1.96366
50.02 0.0715626 -0.00417929 -0.00753982 1.96584
50.025 0.146413 -0.00198893 -0.00753982 1.95713
50.03 0.151206 -0.00715771 -0.00785398 1.96383
50.035 0.214503 -0.000865598 -0.00785398 1.96596
50.04 0.226344 -0.00412161 -0.00816814 1.95722
50.045 0.199467 -0.00771403 -0.00816814 1.9536
50.05 0.143688 -0.0114382 -0.00816814 1.96126
50.055 0.0720665 -0.0144189 -0.0084823 1.96408
50.06 0.0323199 -0.013131 -0.0084823 1.96615
50.065 -0.0393907 -0.0174559 -0.00879646 1.96764
50.07 -0.0501027 -0.0132312 -0.00879646 1.96874
50.075 -0.0355283 -0.0108688 -0.00911062 1.96953
50.08 -0.0273386 -0.0108581 -0.00942478 1.95983
50.085 0.0137837 -0.00741639 -0.00942478 1.9555
50.09 0.0569789 -0.00618243 -0.00973894 1.96264
50.095 0.139906 -0.000663525 -0.0100531 1.96509
50.1 0.156959 -0.00525997 -0.0100531 1.97717
50.105 0.214583 -0.000175347 -0.0103673 1.97293
50.11 0.190939 -0.00696752 -0.0103673 1.97259
50.115 0.129661 -0.0114557 -0.0103673 1.97234
50.12 0.0739094 -0.0123924 -0.0106814 1.97216
50.125 0.0452892 -0.0111325 -0.0106814 1.97202
50.13 0.0300095 -0.0105794 -0.0106814 1.97193
50.135 0.0430087 -0.00829335 -0.0106814 1.98214
50.14 0.0712496 -0.00613569 -0.0106814 1.97656
50.145 0.15523 0.000542349 -0.0109956 1.97523
50.15 0.186438 -0.00257639 -0.0109956 1.97426
50.155 0.22982 -0.000361363 -0.0109956 1.97356
50.16 0.241485 -0.00234307 -0.0109956 1.97305
50.165 0.215131 -0.00569376 -0.0113097 1.97267
50.17 0.124336 -0.0130303 -0.0113097 1.9724
50.175 0.0453393 -0.0141409 -0.0116239 1.9722
50.18 -0.0175538 -0.0147019 -0.0116239 1.97206
50.185 -0.00453636 -0.00848818 -0.0119381 1.97195
50.19 0.0280122 -0.00618032 -0.0119381 1.97188
50.195 0.0287482 -0.00831446 -0.0122522 1.96153
50.2 0.048633 -0.00659837 -0.0122522 1.96704
50.205 0.132841 0.000655195 -0.0122522 1.96829
50.21 0.180794 -0.000731681 -0.0122522 1.96921
50.215 0.181005 -0.0043629 -0.0122522 1.98016
50.22 0.167037 -0.00564101 -0.0122522 1.97511
50.225 0.155259 -0.00576109 -0.0122522 1.97418
50.23 0.0826741 -0.0122392 -0.0122522 1.96321
50.235 0.0490289 -0.0103757 -0.0122522 1.96825
50.24 -0.0370584 -0.0167562 -0.0122522 1.96918
50.245 -0.0730795 -0.0140531 -0.0122522 1.96986
50.25 -0.0772588 -0.0116309 -0.0122522 1.96007
50.255 -0.0283059 -0.00670889 -0.0122522 1.96596
50.26 -0.00427812 -0.00779368 -0.0125664 1.96751
50.265 0.0308316 -0.00584345 -0.0125664 1.95835
50.27 0.0901221 -0.00252482 -0.0128805 1.96472
50.275 0.152638 -0.000463717 -0.0128805 1.9666
50.28 0.16102 -0.00412147 -0.0131947 1.96798
50.285 0.188243 -0.00185825 -0.0131947 1.96898
50.29 0.185084 -0.00400844 -0.0135088 1.96971
50.295 0.192041 -0.00295434 -0.0135088 1.97024
50.3 0.180231 -0.00452889 -0.0135088 1.96035
50.305 0.121953 -0.00959872 -0.0135088 1.95588
50.31 0.0790496 -0.00941816 -0.013823 1.95263
50.315 0.0480084 -0.00954166 -0.013823 1.96054
50.32 0.0921159 -0.00246158 -0.013823 1.95328
50.325 0.0836812 -0.00686597 -0.013823 1.96102
50.33 0.115803 -0.00269535 -0.0141372 1.96391
50.335 0.152068 -0.00123189 -0.0141372 1.95573
50.34 0.134477 -0.0057844 -0.0141372 1.95252
50.345 0.13446 -0.00453172 -0.0141372 1.96047
50.35 0.133184 -0.00458049 -0.0141372 1.96351
50.355 0.112396 -0.00647265 -0.0141372 1.95544
50.36 0.0724182 -0.00917688 -0.0141372 1.96259
50.365 0.0256551 -0.0109653 -0.0141372 1.96506
50.37 0.0291838 -0.00693983 -0.0144513 1.96685
50.375 0.0402206 -0.0059288 -0.0144513 1.95787
50.38 0.09247 -0.00132504 -0.0147655 1.95408
50.385 0.146069 0.000119967 -0.0147655 1.9616
50.39 0.169215 -0.00127849 -0.0150796 1.96434
50.395 0.182807 -0.00154675 -0.0150796 1.96633
50.4 0.130316 -0.00794194 -0.0150796 1.96778
50.405 0.131366 -0.00352584 -0.0153938 1.95855
50.41 0.105139 -0.00631614 -0.0153938 1.95457
50.415 0.0874403 -0.00612742 -0.015708 1.96196
50.42 0.0320173 -0.0104855 -0.015708 1.9646
50.425 0.0435079 -0.00497298 -0.0160221 1.96652
50.43 0.0327364 -0.00699713 -0.0160221 1.96792
50.435 0.0689135 -0.00230305 -0.0163363 1.96894
50.44 0.0848955 -0.00340609 -0.0163363 1.96968
50.445 0.127423 0.00010211 -0.0166504 1.95993
50.45 0.151584 -0.00079105 -0.0166504 1.96587
50.455 0.188784 0.00149863 -0.0169646 1.96744
50.46 0.195686 -0.000520203 -0.0169646 1.96859
50.465 0.176442 -0.00268891 -0.0172788 1.95914
50.47 0.170754 -0.00187998 -0.0172788 1.96529
50.475 0.173179 -0.000831151 -0.0175929 1.95674
50.48 0.196525 0.00141933 -0.0175929 1.95325
50.485 0.165503 -0.00345674 -0.0175929 1.95071
50.49 0.137092 -0.00409139 -0.0175929 1.95915
50.495 0.140259 -0.00138346 -0.0179071 1.96255
50.5 0.117626 -0.00392381 -0.0179071 1.96503
50.505 0.109906 -0.00298087 -0.0179071 1.96683
50.51 0.062949 -0.00709539 -0.0182212 1.96815
50.515 0.0350017 -0.00626231 -0.0182212 1.95881
50.52 -0.00697434 -0.00857183 -0.0182212 1.95477
50.525 -0.00623032 -0.00546792 -0.0185354 1.9621
50.53 -0.0376594 -0.00854118 -0.0185354 1.95442
50.535 -0.041905 -0.00661853 -0.0188496 1.95156
50.54 -0.0286286 -0.00514762 -0.0191637 1.95977
50.545 -0.0111469 -0.0040872 -0.0191637 1.95271
50.55 0.07612 0.00356096 -0.0194779 1.95032
50.555 0.0606953 -0.0044652 -0.019792 1.94858
50.56 0.106373 0.0013251 -0.0201062 1.9576
50.565 0.147975 0.00228448 -0.0201062 1.96142
50.57 0.197386 0.0044806 -0.0204204 1.9642
50.575 0.223703 0.00357167 -0.0204204 1.96623
50.58 0.210945 0.000533789 -0.0207345 1.96771
50.585 0.232249 0.00394748 -0.0207345 1.9585
50.59 0.165206 -0.00435085 -0.0210487 1.95454
50.595 0.127149 -0.00329502 -0.0210487 1.96193
50.6 0.150304 0.00238765 -0.0213628 1.95429
50.605 0.128712 -0.00143751 -0.021677 1.95147
50.61 0.115921 -0.00126437 -0.021677 1.9597
50.615 0.156292 0.00412114 -0.021677 1.95266
50.62 0.164556 0.00207081 -0.0219911 1.95029
50.625 0.192422 0.00424423 -0.0219911 1.95884
50.63 0.21908 0.00504064 -0.0219911 1.96232
50.635 0.17445 -0.00133025 -0.0223053 1.96486
50.64 0.186381 0.00337362 -0.0223053 1.96671
50.645 0.180928 0.00198786 -0.0223053 1.96806
50.65 0.12734 -0.00293384 -0.0223053 1.95875
50.655 0.0999018 -0.00170483 -0.0223053 1.95472
50.66 0.0613032 -0.0035981 -0.0223053 1.95178
50.665 0.0493456 -0.00214174 -0.0223053 1.95993
50.67 0.0860202 0.00278033 -0.0223053 1.95283
50.675 0.110864 0.00249116 -0.0223053 1.95041
50.68 0.135739 0.00302964 -0.0223053 1.95893
50.685 0.183913 0.00636656 -0.0223053 1.9521
50.69 0.191892 0.00357138 -0.0223053 1.94988
50.695 0.197528 0.00352126 -0.0223053 1.95854
50.7 0.243601 0.00800143 -0.0223053 1.96211
50.705 0.20385 0.000623063 -0.0223053 1.95441
50.71 0.17391 0.000509201 -0.0223053 1.96185
50.715 0.10568 -0.00418928 -0.0223053 1.96451
50.72 0.0748293 -0.00202676 -0.0223053 1.95617
50.725 0.0605964 -0.00121885 -0.0223053 1.95284
50.73 -0.0016169 -0.00657117 -0.0223053 1.95041
50.735 -0.0042726 -0.00206909 -0.0226195 1.94864
50.74 0.0121523 -0.000261541 -0.0226195 1.94736
50.745 0.0499752 0.00210997 -0.0226195 1.9567
50.75 0.0722294 0.00196369 -0.0229336 1.95048
50.755 0.0954248 0.0025901 -0.0229336 1.94869
50.76 0.165814 0.00807664 -0.0229336 1.9474
50.765 0.141719 0.000208867 -0.0229336 1.95673
50.77 0.210918 0.00940865 -0.0229336 1.9505
50.775 0.17332 0.000372019 -0.0229336 1.94871
50.78 0.176468 0.00347226 -0.0229336 1.95769
50.785 0.154905 0.0012732 -0.0229336 1.9512
50.79 0.0607687 -0.00660396 -0.0232478 1.94922
50.795 0.0306785 -0.00261393 -0.0232478 1.94777
50.8 -0.0182996 -0.00541981 -0.0232478 1.94673
50.805 -0.0226601 -0.00210773 -0.0235619 1.94596
50.81 -0.0213752 -0.00173382 -0.0235619 1.9454
50.815 0.0276696 0.00327196 -0.0238761 1.94499
50.82 0.0279611 -0.000427634 -0.0238761 1.9447
50.825 0.0644869 0.00341188 -0.0241903 1.94448
50.83 0.111787 0.00545281 -0.0245044 1.95461
50.835 0.158908 0.00703248 -0.0248186 1.95923
50.84 0.170706 0.00495065 -0.0248186 1.95232
50.845 0.200939 0.00719032 -0.0251327 1.96032
50.85 0.171638 0.00236126 -0.0254469 1.95311
50.855 0.195192 0.00702988 -0.0254469 1.95061
50.86 0.167268 0.00247547 -0.0254469 1.94878
50.865 0.156966 0.0035803 -0.0257611 1.95774
50.87 0.120021 0.00085469 -0.0257611 1.95123
50.875 0.0598783 -0.00255681 -0.0257611 1.94924
50.88 0.0456645 0.000504016 -0.0257611 1.94778
50.885 0.0203108 -0.00105486 -0.0257611 1.94673
50.89 0.0757519 0.00665179 -0.0260752 1.94596
50.895 0.0432384 -0.0011083 -0.0260752 1.95568
50.9 0.129489 0.0105254 -0.0260752 1.94973
50.905 0.116093 0.0027617 -0.0263894 1.94814
50.91 0.195159 0.0117574 -0.0263894 1.95727
50.915 0.259564 0.0127569 -0.0263894 1.95089
50.92 0.244019 0.00639478 -0.0263894 1.94899
50.925 0.244212 0.00787952 -0.0267035 1.94761
50.93 0.193512 0.00279649 -0.0267035 1.9466
50.935 0.182416 0.00556897 -0.0267035 1.94587
50.94 0.0905759 -0.00293301 -0.0267035 1.94533
50.945 0.101397 0.00524893 -0.0270177 1.94495
50.95 0.0951883 0.00381532 -0.0270177 1.94466
50.955 0.0205001 -0.00336297 -0.0270177 1.94446
50.96 0.0769913 0.00799624 -0.0270177 1.9443
50.965 0.0614923 0.00216073 -0.0270177 1.9442
50.97 0.107656 0.00820144 -0.0273319 1.94411
50.975 0.122454 0.00627504 -0.0273319 1.94406
50.98 0.177316 0.010826 -0.0273319 1.94401
50.985 0.294128 0.0187608 -0.0273319 1.94399
50.99 0.234858 0.00408608 -0.0273319 1.94396
50.995 0.246575 0.00987094 -0.0273319 1.94395
51 0.192448 0.00358009 -0.0273319 1.94393
51.005 0.157658 0.00417396 -0.0273319 1.94393
51.01 0.1424 0.00528761 -0.0273319 1.94392
51.015 0.0627263 -0.001682 -0.0273319 1.94392
51.02 0.064167 0.00443864 -0.0273319 1.94391
51.025 0.083038 0.00625189 -0.0273319 1.94391
51.03 0.123155 0.00894962 -0.0273319 1.94391
51.035 0.144446 0.00815452 -0.0273319 1.94391
51.04 0.231633 0.0155462 -0.0273319 1.9439
51.045 0.279088 0.0139844 -0.0273319 1.9439
51.05 0.271703 0.00982536 -0.0273319 1.9439
51.055 0.354208 0.018993 -0.0273319 1.9439
51.06 0.253107 0.00259917 -0.0273319 1.95419
51.065 0.256373 0.0107539 -0.0273319 1.94865
51.07 0.164458 0.000933723 -0.0270177 1.95765
51.075 0.152735 0.00685701 -0.0270177 1.95117
51.08 0.147581 0.0072309 -0.0270177 1.94919
51.085 0.118503 0.00467899 -0.0270177 1.94776
51.09 0.224248 0.0176812 -0.0270177 1.957
51.095 0.229233 0.0104385 -0.0270177 1.9507
51.1 0.298098 0.0170757 -0.0267035 1.94885
51.105 0.343077 0.0166941 -0.0267035 1.95779
51.11 0.379985 0.017284 -0.0267035 1.95127
51.115 0.417434 0.0184262 -0.0263894 1.94927
51.12 0.282651 0.00186 -0.0260752 1.94781
51.125 0.29992 0.0137831 -0.0257611 1.94675
51.13 0.156147 -0.00211211 -0.0257611 1.94598
51.135 0.125763 0.00542021 -0.0254469 1.9557
51.14 0.111682 0.00620432 -0.0251327 1.94975
51.145 0.0939513 0.0054285 -0.0251327 1.94816
51.15 0.121478 0.00942561 -0.0248186 1.947
51.155 0.106112 0.00578809 -0.0248186 1.94616
51.16 0.24289 0.0209777 -0.0248186 1.94555
51.165 0.2864 0.0151068 -0.0245044 1.9451
51.17 0.305161 0.013962 -0.0245044 1.95506
51.175 0.332758 0.0154905 -0.0245044 1.94929
51.18 0.318403 0.0119746 -0.0241903 1.94782
51.185 0.371951 0.0187225 -0.0241903 1.94676
51.19 0.274699 0.00483921 -0.0238761 1.95627
51.195 0.24422 0.00891726 -0.0235619 1.95017
51.2 0.142802 0.000917259 -0.0235619 1.94846
51.205 0.154484 0.00962803 -0.0232478 1.94723
51.21 0.200802 0.0133747 -0.0229336 1.94632
51.215 0.258702 0.015894 -0.0229336 1.94567
51.22 0.356687 0.021673 -0.0226195 1.95547
51.225 0.349749 0.0136081 -0.0223053 1.95987
51.23 0.406208 0.0199994 -0.0223053 1.95279
51.235 0.40534 0.0159423 -0.0219911 1.96066
51.24 0.408774 0.016192 -0.021677 1.95336
51.245 0.38053 0.0131507 -0.0213628 1.9508
51.25 0.263259 0.00343158 -0.0213628 1.94892
51.255 0.185722 0.00435533 -0.0210487 1.95785
51.26 0.119397 0.0032992 -0.0210487 1.95131
51.265 0.118994 0.00811813 -0.0207345 1.9493
51.27 0.142426 0.0105363 -0.0207345 1.94783
51.275 0.185666 0.0132097 -0.0207345 1.94677
51.28 0.274154 0.0189146 -0.0204204 1.94599
51.285 0.28529 0.0133506 -0.0201062 1.94542
51.29 0.421267 0.0267992 -0.0201062 1.95529
51.295 0.427773 0.0170313 -0.019792 1.94946
51.3 0.415762 0.0155374 -0.0191637 1.95824
51.305 0.362921 0.0109839 -0.0188496 1.96189
51.31 0.272643 0.00547372 -0.0185354 1.95426
51.315 0.207696 0.00547692 -0.0179071 1.95146
51.32 0.0985771 -0.000944069 -0.0175929 1.94941
51.325 0.103652 0.00760994 -0.0172788 1.94792
51.33 0.13271 0.0100134 -0.0169646 1.94683
51.335 0.128185 0.00727106 -0.0166504 1.95633
51.34 0.174116 0.0120645 -0.0163363 1.95021
51.345 0.235171 0.0147531 -0.0160221 1.9485
51.35 0.304799 0.0172128 -0.015708 1.94726
51.355 0.365167 0.0185225 -0.015708 1.95664
51.36 0.374368 0.0146464 -0.0153938 1.95044
51.365 0.366966 0.013537 -0.0150796 1.95895
51.37 0.322138 0.00941149 -0.0147655 1.96241
51.375 0.288681 0.00909963 -0.0144513 1.95464
51.38 0.273714 0.0101086 -0.0141372 1.95173
51.385 0.251722 0.00891423 -0.013823 1.94961
51.39 0.233857 0.00885507 -0.0135088 1.95835
51.395 0.221657 0.00859464 -0.0131947 1.95168
51.4 0.286804 0.0161588 -0.0128805 1.94957
51.405 0.280222 0.0103534 -0.0122522 1.94803
51.41 0.324908 0.0153744 -0.0119381 1.94691
51.415 0.324271 0.0119152 -0.0116239 1.94609
51.42 0.368857 0.0166603 -0.0109956 1.95579
51.425 0.351374 0.0111175 -0.0106814 1.94981
51.43 0.31397 0.00851685 -0.0100531 1.94821
51.435 0.278753 0.00767875 -0.00973894 1.94704
51.44 0.19112 0.00126539 -0.00942478 1.94619
51.445 0.249108 0.0136653 -0.00911062 1.94556
51.45 0.21901 0.00611604 -0.00879646 1.94512
51.455 0.287115 0.0155319 -0.0084823 1.95507
51.46 0.326321 0.0139969 -0.00816814 1.94929
51.465 0.347825 0.013137 -0.00753982 1.94783
51.47 0.388788 0.0157008 -0.00722566 1.94676
51.475 0.373609 0.0110687 -0.0069115 1.94598
51.48 0.37645 0.0124984 -0.00659734 1.94542
51.485 0.323677 0.00686752 -0.00628319 1.94501
51.49 0.295318 0.00787877 -0.00596903 1.94471
51.495 0.210469 0.0012363 -0.00565487 1.94449
51.5 0.18456 0.00525654 -0.00565487 1.95462
51.505 0.15714 0.00385236 -0.00534071 1.94896
51.51 0.148741 0.00494667 -0.00502655 1.94759
51.515 0.186384 0.00924795 -0.00471239 1.94658
51.52 0.23124 0.0111524 -0.00439823 1.95614
51.525 0.252237 0.00957948 -0.00439823 1.95007
51.53 0.244273 0.0074614 -0.00408407 1.95869
51.535 0.263036 0.00980212 -0.00376991 1.96221
51.54 0.301631 0.0119315 -0.00345575 1.95449
51.545 0.2823 0.00719236 -0.00345575 1.95162
51.55 0.310841 0.0115003 -0.00314159 1.94952
51.555 0.281733 0.00663658 -0.00282743 1.95828
51.56 0.223572 0.00230956 -0.00251327 1.95163
51.565 0.213688 0.00595147 -0.00219911 1.95982
51.57 0.184998 0.00364926 -0.00219911 1.96304
51.575 0.23758 0.0107845 -0.00188496 1.95509
51.58 0.176806 0.000492502 -0.0015708 1.95206
51.585 0.229984 0.010842 -0.0015708 1.96013
51.59 0.206819 0.00420926 -0.00125664 1.96326
51.595 0.184005 0.00331451 -0.00125664 1.95526
51.6 0.171374 0.00392425 -0.000942478 1.96246
51.605 0.145106 0.00179685 -0.000942478 1.95467
51.61 0.133808 0.00249299 -0.000628319 1.95175
51.615 0.126753 0.0025631 -0.000628319 1.94962
51.62 0.13167 0.0037657 -0.000628319 1.95835
51.625 0.156447 0.0056797 -0.000314159 1.96197
51.63 0.204643 0.00849381 -0.000314159 1.95432
51.635 0.269 0.0116808 0 1.96177
51.64 0.338145 0.013609 0 1.95418
51.645 0.38339 0.0130681 0.000314159 1.95139
51.65 0.391592 0.0104829 0.000628319 1.94936
51.655 0.415373 0.0123014 0.000942478 1.94787
51.66 0.382291 0.00712442 0.00125664 1.9468
51.665 0.370052 0.00849629 0.00125664 1.94601
51.67 0.303329 0.00254121 0.0015708 1.94544
51.675 0.186238 -0.00453615 0.00188496 1.94502
51.68 0.11935 -0.00261884 0.00188496 1.94472
51.685 0.0664682 -0.00325199 0.00219911 1.94449
51.69 0.0662092 0.000569384 0.00219911 1.94434
51.695 0.112334 0.00503549 0.00251327 1.94422
51.7 0.182524 0.00867639 0.00251327 1.94413
51.705 0.253741 0.0106717 0.00251327 1.94407
51.71 0.342633 0.0143054 0.00282743 1.94402
51.715 0.398036 0.0132498 0.00314159 1.94399
51.72 0.414515 0.0104774 0.00314159 1.93368
51.725 0.423346 0.0105579 0.00376991 1.9392
51.73 0.366405 0.00395214 0.00408407 1.94048
51.735 0.292953 0.000656916 0.00439823 1.94141
51.74 0.21481 -0.0019411 0.00471239 1.94209
51.745 0.10783 -0.00720498 0.00502655 1.94258
51.75 0.118055 0.00175456 0.00565487 1.95322
51.755 0.0907712 -0.00244222 0.00596903 1.94794
51.76 0.08979 -0.000672944 0.00628319 1.94685
51.765 0.124605 0.0029937 0.00659734 1.95633
51.77 0.142341 0.00158936 0.0069115 1.95021
51.775 0.217026 0.00793764 0.0069115 1.9485
51.78 0.240652 0.00457226 0.00722566 1.94725
51.785 0.270517 0.00571714 0.00753982 1.94634
51.79 0.266411 0.00308634 0.00753982 1.94568
51.795 0.25911 0.00290674 0.00785398 1.95548
51.8 0.226967 -0.00031463 0.00785398 1.94959
51.805 0.198389 -0.00087232 0.00816814 1.94805
51.81 0.116109 -0.00718829 0.00816814 1.94692
51.815 0.0187169 -0.010994 0.0084823 1.95639
51.82 -0.00151087 -0.00621469 0.0084823 1.95025
51.825 0.0164795 -0.00311656 0.00879646 1.94853
51.83 0.102945 0.00423823 0.00879646 1.94727
51.835 0.104672 -0.00234862 0.00911062 1.94636
51.84 0.0946565 -0.00359758 0.00911062 1.94569
51.845 0.120657 -0.000682174 0.00942478 1.93492
51.85 0.116803 -0.00278602 0.00942478 1.94011
51.855 0.141783 -8.82209e-05 0.00942478 1.94113
51.86 0.117347 -0.00491958 0.00973894 1.9316
51.865 0.157605 0.00126038 0.00973894 1.93769
51.87 0.0741474 -0.0103935 0.00973894 1.93938
51.875 0.070605 -0.0046177 0.00973894 1.9406
51.88 0.108079 -0.000405019 0.00973894 1.95179
51.885 0.0872506 -0.00572435 0.00973894 1.9469
51.89 0.118386 -0.00099675 0.00973894 1.94609
51.895 0.0937386 -0.00573003 0.00973894 1.95578
51.9 0.111856 -0.00221591 0.00942478 1.94981
51.905 0.10877 -0.00392022 0.00942478 1.9482
51.91 0.110044 -0.00363387 0.00942478 1.94704
51.915 0.155987 0.000909038 0.00942478 1.94618
51.92 0.141019 -0.00412271 0.00942478 1.94557
51.925 0.197217 0.00287248 0.00911062 1.94511
51.93 0.171097 -0.00403763 0.00911062 1.94479
51.935 0.176815 -0.00151343 0.00911062 1.94454
51.94 0.163799 -0.00306122 0.00911062 1.95466
51.945 0.147984 -0.00381612 0.00911062 1.95927
51.95 0.129127 -0.00483823 0.00911062 1.95236
51.955 0.0990534 -0.00630528 0.00911062 1.96034
51.96 0.111408 -0.0030976 0.00911062 1.95314
51.965 0.0412232 -0.0114289 0.00942478 1.95063
51.97 0.0817163 -0.00209557 0.00942478 1.9488
51.975 0.109036 -0.00244018 0.00942478 1.94747
51.98 0.080674 -0.00748209 0.00942478 1.9465
51.985 0.110273 -0.00224936 0.00911062 1.94579
51.99 0.100296 -0.00574639 0.00911062 1.935
51.995 0.184717 0.00378475 0.00911062 1.94016
52 0.173564 -0.00373755 0.00911062 1.94118
52.005 0.199208 -0.000293252 0.00911062 1.94191
52.01 0.155693 -0.00667127 0.00911062 1.94246
52.015 0.0738197 -0.0118249 0.00911062 1.94285
52.02 0.0677038 -0.00624652 0.00911062 1.95342
52.025 0.00587785 -0.0124423 0.00911062 1.94809
52.03 0.0707392 -0.00123383 0.00911062 1.94695
52.035 0.0902457 -0.00421646 0.00911062 1.94612
52.04 0.0725662 -0.00772455 0.00911062 1.93524
52.045 0.102814 -0.00321193 0.00911062 1.94033
52.05 0.11536 -0.00446578 0.00911062 1.93102
52.055 0.208305 0.00423721 0.00911062 1.93726
52.06 0.195641 -0.00403323 0.00911062 1.93907
52.065 0.184654 -0.00420226 0.00911062 1.94038
52.07 0.187017 -0.00313969 0.00911062 1.94134
52.075 0.148787 -0.00723299 0.00911062 1.94203
52.08 0.160511 -0.0033509 0.00942478 1.94254
52.085 0.0680686 -0.0137242 0.00942478 1.94291
52.09 0.0769812 -0.00596765 0.00942478 1.94318
52.095 -0.00871341 -0.0155086 0.00942478 1.94337
52.1 0.0181115 -0.00659169 0.00942478 1.93323
52.105 -0.00682497 -0.0111521 0.00942478 1.93887
52.11 0.0691083 -0.00169974 0.00942478 1.94024
52.115 0.104548 -0.00400264 0.00942478 1.93095
52.12 0.119655 -0.00498693 0.00942478 1.93721
52.125 0.165217 -0.00154625 0.00942478 1.93903
52.13 0.151887 -0.00633104 0.00942478 1.94035
52.135 0.175805 -0.00275068 0.00911062 1.94131
52.14 0.108758 -0.0114122 0.00911062 1.94202
52.145 0.0448685 -0.0129823 0.00911062 1.94253
52.15 0.0648566 -0.0062477 0.00911062 1.9429
52.155 0.0118472 -0.0132719 0.00911062 1.94317
52.16 0.0542692 -0.00507764 0.00911062 1.94337
52.165 0.0447685 -0.00944014 0.00911062 1.93323
52.17 0.117331 -0.00128286 0.00911062 1.93887
52.175 0.220493 0.00356543 0.00911062 1.92995
52.18 0.251044 -0.000744673 0.00911062 1.93649
52.185 0.344009 0.00648004 0.00911062 1.9385
52.19 0.310848 -0.00388559 0.00942478 1.93997
52.195 0.263872 -0.00609963 0.00942478 1.94103
52.2 0.192571 -0.00980858 0.00942478 1.94181
52.205 0.104268 -0.0134941 0.00942478 1.94238
52.21 0.100473 -0.00731905 0.00942478 1.94279
52.215 -0.0192975 -0.0193725 0.00942478 1.94309
52.22 -0.0408903 -0.0127544 0.00942478 1.94331
52.225 -0.116028 -0.0190471 0.00942478 1.93318
52.23 -0.0704533 -0.00879073 0.00911062 1.93884
52.235 -0.040074 -0.00929765 0.00911062 1.94021
52.24 0.0422987 -0.00331478 0.00911062 1.94122
52.245 0.194029 0.00594109 0.00911062 1.94194
52.25 0.204548 -0.00434398 0.00911062 1.94248
52.255 0.246501 -0.000650457 0.00879646 1.94286
52.26 0.222389 -0.00614428 0.00911062 1.95343
52.265 0.224594 -0.00434342 0.00911062 1.9481
52.27 0.192248 -0.00751594 0.00911062 1.95725
52.275 0.129081 -0.0118327 0.00911062 1.95087
52.28 0.0629946 -0.013831 0.00911062 1.94898
52.285 -0.0483086 -0.0205221 0.00942478 1.9476
52.29 -0.0314285 -0.010364 0.00911062 1.95689
52.295 0.0495343 -0.00354914 0.00911062 1.95061
52.3 0.0664771 -0.0080065 0.00911062 1.94879
52.305 0.102234 -0.00569428 0.00911062 1.94746
52.31 0.184943 4.91497e-05 0.00911062 1.9465
52.315 0.286877 0.00429628 0.00911062 1.94579
52.32 0.292516 -0.0024344 0.00911062 1.95557
52.325 0.301493 -0.00217358 0.00911062 1.94965
52.33 0.230603 -0.00995189 0.00911062 1.94809
52.335 0.133558 -0.0143315 0.00911062 1.95724
52.34 0.0725978 -0.0135721 0.00911062 1.95087
52.345 -0.0016377 -0.0164745 0.00879646 1.94898
52.35 0.00470494 -0.0103676 0.00879646 1.9476
52.355 -0.0140741 -0.0129922 0.00879646 1.93631
52.36 0.0298871 -0.00713236 0.00879646 1.94112
52.365 0.0883614 -0.00457385 0.00879646 1.94187
52.37 0.166998 -0.00112671 0.00911062 1.94243
52.375 0.21955 -0.00164524 0.00911062 1.94282
52.38 0.175398 -0.0100713 0.00911062 1.94312
52.385 0.156306 -0.00870539 0.00911062 1.94333
52.39 0.110887 -0.0120901 0.00942478 1.94349
52.395 0.0778312 -0.0121125 0.00942478 1.9436
52.4 -0.0100854 -0.0187128 0.00942478 1.94368
52.405 -0.0813672 -0.0195574 0.00942478 1.94374
52.41 -0.0612803 -0.0123438 0.00942478 1.94379
52.415 -0.0655631 -0.0144746 0.00942478 1.94381
52.42 -0.0621352 -0.0138299 0.00911062 1.94384
52.425 0.00969015 -0.00690434 0.00911062 1.94385
52.43 0.101384 -0.00302106 0.00911062 1.94387
52.435 0.171155 -0.00264668 0.00879646 1.94388
52.44 0.205827 -0.0043203 0.00879646 1.94389
52.445 0.224357 -0.00498311 0.00879646 1.94389
52.45 0.195681 -0.00925708 0.00879646 1.94389
52.455 0.195739 -0.00706348 0.00879646 1.94389
52.46 0.15152 -0.0115684 0.00879646 1.9439
52.465 0.0589312 -0.0177408 0.00879646 1.9439
52.47 -0.00667146 -0.0174335 0.0084823 1.9439
52.475 -0.0549903 -0.017591 0.0084823 1.9439
52.48 -0.0505728 -0.0136915 0.0084823 1.93362
52.485 0.0087239 -0.00811804 0.0084823 1.93915
52.49 0.0682427 -0.00658354 0.0084823 1.94044
52.495 0.164454 -0.0012619 0.0084823 1.94138
52.5 0.235233 -0.00121707 0.0084823 1.94207
52.505 0.240767 -0.00589117 0.0084823 1.94256
52.51 0.21084 -0.00947501 0.0084823 1.93264
52.515 0.227073 -0.00529601 0.0084823 1.93844
52.52 0.143958 -0.0150003 0.0084823 1.93993
52.525 0.0620434 -0.0172669 0.0084823 1.93072
52.53 0.0123461 -0.0159963 0.00816814 1.93705
52.535 -0.00994426 -0.0147014 0.00816814 1.93891
52.54 0.0607775 -0.0060126 0.00816814 1.92998
52.545 0.0401212 -0.0133948 0.00816814 1.9365
52.55 0.055131 -0.0102739 0.00785398 1.93851
52.555 0.0808847 -0.0089273 0.00785398 1.92969
52.56 0.094772 -0.00938863 0.00785398 1.9363
52.565 0.0984603 -0.00996048 0.00753982 1.93836
52.57 0.0681152 -0.0134579 0.00753982 1.92958
52.575 0.110652 -0.0068161 0.00753982 1.93621
52.58 0.0918645 -0.0119619 0.00753982 1.9383
52.585 0.111733 -0.00851165 0.00722566 1.92953
52.59 0.0926109 -0.0118624 0.00722566 1.93618
52.595 0.0680312 -0.013015 0.00722566 1.93828
52.6 0.117586 -0.00626581 0.00722566 1.92952
52.605 0.0476005 -0.0168745 0.0069115 1.93617
52.61 0.0775169 -0.00869453 0.0069115 1.93827
52.615 0.111533 -0.00759561 0.0069115 1.92951
52.62 0.0901954 -0.0120896 0.00659734 1.93617
52.625 0.113669 -0.00816424 0.00659734 1.93826
52.63 0.103563 -0.0110611 0.00659734 1.92951
52.635 0.109625 -0.00946667 0.00628319 1.93616
52.64 0.0752769 -0.0134789 0.00628319 1.93827
52.645 0.0819157 -0.0103503 0.00628319 1.92951
52.65 0.0352941 -0.015582 0.00628319 1.93616
52.655 0.0369721 -0.0118767 0.00596903 1.93826
52.66 0.0246283 -0.0133716 0.00596903 1.92951
52.665 -0.031085 -0.0180566 0.00565487 1.93616
52.67 0.00527859 -0.0101605 0.00534071 1.92798
52.675 0.0114566 -0.0123673 0.00534071 1.92476
52.68 -0.0136278 -0.0153454 0.00502655 1.93271
52.685 -0.0624429 -0.0184177 0.00471239 1.93574
52.69 -0.113614 -0.0200576 0.00471239 1.92767
52.695 -0.117223 -0.0167856 0.00439823 1.93482
52.7 -0.104827 -0.0151373 0.00408407 1.927
52.705 -0.127503 -0.0184261 0.00376991 1.92405
52.71 -0.116721 -0.015854 0.00345575 1.93219
52.715 -0.10067 -0.0150024 0.00314159 1.93537
52.72 -0.0177306 -0.00778308 0.00314159 1.9274
52.725 0.0499131 -0.00719954 0.00282743 1.93462
52.73 0.128102 -0.00408134 0.00251327 1.92686
52.735 0.115348 -0.0112213 0.00251327 1.92394
52.74 0.180194 -0.00356188 0.00219911 1.93211
52.745 0.156092 -0.0106195 0.00188496 1.93531
52.75 0.128142 -0.0116168 0.00188496 1.92736
52.755 0.146549 -0.0075164 0.0015708 1.93459
52.76 0.0494474 -0.0185573 0.00125664 1.92684
52.765 0.0450124 -0.0115801 0.000628319 1.93421
52.77 -0.0278695 -0.0185724 0.000314159 1.93685
52.775 0.0062425 -0.00949757 0 1.92847
52.78 0.0687499 -0.00567781 -0.000314159 1.92513
52.785 0.0742069 -0.00965773 -0.000628319 1.92268
52.79 0.116953 -0.00561815 -0.000942478 1.92091
52.795 0.119887 -0.00841077 -0.00125664 1.92989
52.8 0.197696 -0.000503599 -0.0015708 1.9337
52.805 0.15102 -0.0109878 -0.0015708 1.92618
52.81 0.120929 -0.0103719 -0.00188496 1.92345
52.815 0.049094 -0.0154927 -0.00188496 1.93175
52.82 -0.0279706 -0.0177642 -0.00219911 1.92477
52.825 -0.0773585 -0.0173273 -0.00219911 1.93271
52.83 -0.161728 -0.0222152 -0.00251327 1.93575
52.835 -0.140334 -0.0135729 -0.00282743 1.92767
52.84 -0.120059 -0.0133798 -0.00282743 1.92454
52.845 -0.0225479 -0.00502593 -0.00314159 1.92226
52.85 -0.0338498 -0.0133703 -0.00345575 1.9206
52.855 -0.00705706 -0.0101316 -0.00345575 1.92967
52.86 0.0790679 -0.00319302 -0.00376991 1.93353
52.865 0.0840882 -0.00883683 -0.00408407 1.92606
52.87 0.19485 0.00206294 -0.00439823 1.93365
52.875 0.108656 -0.0146258 -0.00471239 1.92615
52.88 0.0831534 -0.0107517 -0.00502655 1.93372
52.885 0.067426 -0.0102788 -0.00534071 1.93648
52.89 -0.0134642 -0.0170681 -0.00565487 1.92821
52.895 -0.0281219 -0.0124893 -0.00596903 1.92493
52.9 -0.0816766 -0.0169957 -0.00628319 1.93283
52.905 -0.0520908 -0.00969498 -0.00659734 1.92555
52.91 -0.0586281 -0.0125859 -0.0069115 1.92299
52.915 -0.0125508 -0.00762982 -0.00722566 1.93141
52.92 0.0385259 -0.00550873 -0.00753982 1.92452
52.925 0.0440471 -0.0086964 -0.00785398 1.92224
52.93 0.106009 -0.0028896 -0.00816814 1.93087
52.935 0.0380193 -0.0140043 -0.0084823 1.92412
52.94 0.0331778 -0.00956175 -0.00879646 1.93224
52.945 -0.0259578 -0.0152117 -0.00879646 1.9354
52.95 -0.0240256 -0.010294 -0.00911062 1.92743
52.955 -0.0367649 -0.0117327 -0.00942478 1.92436
52.96 -0.134394 -0.0206074 -0.00973894 1.92213
52.965 -0.0994015 -0.0096704 -0.0103673 1.9205
52.97 -0.100299 -0.0126889 -0.0106814 1.9296
52.975 -0.0707959 -0.00948324 -0.0109956 1.93348
52.98 -0.06018 -0.0100971 -0.0116239 1.92603
52.985 -0.0409711 -0.00928289 -0.0119381 1.93362
52.99 0.0372199 -0.00215586 -0.0125664 1.92613
52.995 0.050986 -0.00654931 -0.0128805 1.92341
53 0.130828 0.000581262 -0.0135088 1.93172
53.005 0.131004 -0.00504995 -0.013823 1.93503
53.01 0.131767 -0.00457063 -0.0141372 1.92715
53.015 0.0971577 -0.0080649 -0.0147655 1.93445
53.02 0.0646438 -0.0084747 -0.0147655 1.92673
53.025 0.0955796 -0.00282791 -0.0150796 1.92385
53.03 0.052263 -0.00960351 -0.0153938 1.93204
53.035 0.063956 -0.00496624 -0.015708 1.93526
53.04 0.0457854 -0.00728528 -0.0160221 1.92732
53.045 0.00498801 -0.0104401 -0.0160221 1.93457
53.05 0.0191883 -0.00548473 -0.0163363 1.92682
53.055 0.0225663 -0.00644796 -0.0166504 1.9342
53.06 0.0604703 -0.00262176 -0.0169646 1.93684
53.065 0.030504 -0.00824293 -0.0169646 1.92847
53.07 0.112938 0.00240647 -0.0172788 1.92512
53.075 0.16224 0.00125346 -0.0175929 1.93296
53.08 0.103688 -0.00787098 -0.0179071 1.92565
53.085 0.139752 7.4665e-05 -0.0182212 1.93335
53.09 0.0567901 -0.0107945 -0.0185354 1.93622
53.095 0.163402 0.00663933 -0.0188496 1.92801
53.1 0.0386308 -0.0139868 -0.0188496 1.92479
53.105 0.0858041 0.000226794 -0.0191637 1.92244
53.11 0.0631504 -0.00541185 -0.0194779 1.92073
53.115 -0.0350849 -0.0139906 -0.0194779 1.92976
53.12 0.0643304 0.00361393 -0.019792 1.9336
